datetime,id,trial_type,correct,p_or_r,block,first_response,trial_number,sequence,is_practice,correct_pos,cumulative_rt,actual_triplet,triplet_type
2023-04-14T23:15:00Z,qt76109e,fullscreen,NA,NA,NA,NA,NA,NA,NA,NA,NA,NA,NA
2023-04-14T23:15:04Z,qt76109e,html-keyboard-response,NA,NA,NA,NA,NA,NA,NA,NA,NA,NA,NA
2023-04-14T23:15:06Z,qt76109e,serial-reaction-time,1,R,1,1,1,1432,0,4,1019.7000000029802,4,X
2023-04-14T23:15:07Z,qt76109e,serial-reaction-time,1,P,1,1,2,1432,0,1,898.6000000014901,41,X
2023-04-14T23:15:09Z,qt76109e,serial-reaction-time,1,R,1,1,3,1432,0,4,1836.70000000298,414,T
2023-04-14T23:15:11Z,qt76109e,serial-reaction-time,1,P,1,1,4,1432,0,4,1820.5,144,H
2023-04-14T23:15:12Z,qt76109e,serial-reaction-time,1,R,1,1,5,1432,0,4,435.19999999552965,444,R
2023-04-14T23:15:15Z,qt76109e,serial-reaction-time,NA,P,1,1,6,1432,0,3,2717.89999999851,443,H
2023-04-14T23:15:15Z,qt76109e,serial-reaction-time,1,P,1,0,6,1432,0,3,3169.60000000149,443,H
2023-04-14T23:15:16Z,qt76109e,serial-reaction-time,NA,R,1,1,7,1432,0,1,732.6999999955297,431,L
2023-04-14T23:15:16Z,qt76109e,serial-reaction-time,1,R,1,0,7,1432,0,1,1193.9999999925494,431,L
2023-04-14T23:15:18Z,qt76109e,serial-reaction-time,1,P,1,1,8,1432,0,2,1233.2999999970198,312,H
2023-04-14T23:15:20Z,qt76109e,serial-reaction-time,1,R,1,1,9,1432,0,4,1800.7999999970198,124,H
2023-04-14T23:15:23Z,qt76109e,serial-reaction-time,1,P,1,1,10,1432,0,1,3295.8000000044703,241,H
2023-04-14T23:15:24Z,qt76109e,serial-reaction-time,1,R,1,1,11,1432,0,1,317.30000000447035,411,L
2023-04-14T23:15:25Z,qt76109e,serial-reaction-time,1,P,1,1,12,1432,0,4,1172.5,114,H
2023-04-14T23:15:27Z,qt76109e,serial-reaction-time,1,R,1,1,13,1432,0,1,1494.7000000029802,141,T
2023-04-14T23:15:27Z,qt76109e,serial-reaction-time,1,P,1,1,14,1432,0,3,405.5,413,H
2023-04-14T23:15:28Z,qt76109e,serial-reaction-time,1,R,1,1,15,1432,0,3,312.6000000014901,133,L
2023-04-14T23:15:28Z,qt76109e,serial-reaction-time,1,P,1,1,16,1432,0,2,392.8999999985099,332,H
2023-04-14T23:15:29Z,qt76109e,serial-reaction-time,1,R,1,1,17,1432,0,2,280.90000000596046,322,H
2023-04-14T23:15:29Z,qt76109e,serial-reaction-time,1,P,1,1,18,1432,0,1,528.5,221,H
2023-04-14T23:15:30Z,qt76109e,serial-reaction-time,1,R,1,1,19,1432,0,1,271.1000000014901,211,H
2023-04-14T23:15:30Z,qt76109e,serial-reaction-time,1,P,1,1,20,1432,0,4,344.1000000014901,114,H
2023-04-14T23:15:30Z,qt76109e,serial-reaction-time,1,R,1,1,21,1432,0,4,249.80000000447035,144,H
2023-04-14T23:15:31Z,qt76109e,serial-reaction-time,1,P,1,1,22,1432,0,3,337.1000000014901,443,H
2023-04-14T23:15:31Z,qt76109e,serial-reaction-time,1,R,1,1,23,1432,0,4,435,434,T
2023-04-14T23:15:32Z,qt76109e,serial-reaction-time,1,P,1,1,24,1432,0,2,436.70000000298023,342,H
2023-04-14T23:15:33Z,qt76109e,serial-reaction-time,1,R,1,1,25,1432,0,2,350.29999999701977,422,L
2023-04-14T23:15:33Z,qt76109e,serial-reaction-time,1,P,1,1,26,1432,0,1,329.59999999403954,221,H
2023-04-14T23:15:34Z,qt76109e,serial-reaction-time,1,R,1,1,27,1432,0,4,369,214,L
2023-04-14T23:15:34Z,qt76109e,serial-reaction-time,1,P,1,1,28,1432,0,4,373.79999999701977,144,H
2023-04-14T23:15:35Z,qt76109e,serial-reaction-time,1,R,1,1,29,1432,0,3,369.3999999985099,443,H
2023-04-14T23:15:35Z,qt76109e,serial-reaction-time,1,P,1,1,30,1432,0,3,377,433,H
2023-04-14T23:15:36Z,qt76109e,serial-reaction-time,NA,R,1,1,31,1432,0,1,387.29999999701977,331,L
2023-04-14T23:15:36Z,qt76109e,serial-reaction-time,1,R,1,0,31,1432,0,1,502.5,331,L
2023-04-14T23:15:36Z,qt76109e,serial-reaction-time,NA,P,1,1,32,1432,0,2,248.29999999701977,312,H
2023-04-14T23:15:36Z,qt76109e,serial-reaction-time,1,P,1,0,32,1432,0,2,512.1000000014901,312,H
2023-04-14T23:15:37Z,qt76109e,serial-reaction-time,1,R,1,1,33,1432,0,4,456.40000000596046,124,H
2023-04-14T23:15:38Z,qt76109e,serial-reaction-time,1,P,1,1,34,1432,0,1,462.79999999701977,241,H
2023-04-14T23:15:39Z,qt76109e,serial-reaction-time,1,R,1,1,35,1432,0,2,1316.2999999970198,412,L
2023-04-14T23:15:39Z,qt76109e,serial-reaction-time,1,P,1,1,36,1432,0,4,379.3999999985099,124,H
2023-04-14T23:15:40Z,qt76109e,serial-reaction-time,1,R,1,1,37,1432,0,1,442.5,241,H
2023-04-14T23:15:41Z,qt76109e,serial-reaction-time,1,P,1,1,38,1432,0,3,443.8999999985099,413,H
2023-04-14T23:15:42Z,qt76109e,serial-reaction-time,1,R,1,1,39,1432,0,2,770.2999999970198,132,L
2023-04-14T23:15:42Z,qt76109e,serial-reaction-time,1,P,1,1,40,1432,0,2,340.30000000447035,322,H
2023-04-14T23:15:42Z,qt76109e,serial-reaction-time,1,R,1,1,41,1432,0,4,308.1000000014901,224,L
2023-04-14T23:15:43Z,qt76109e,serial-reaction-time,1,P,1,1,42,1432,0,1,393.6000000014901,241,H
2023-04-14T23:15:43Z,qt76109e,serial-reaction-time,NA,R,1,1,43,1432,0,3,400.79999999701977,413,H
2023-04-14T23:15:44Z,qt76109e,serial-reaction-time,1,R,1,0,43,1432,0,3,667.4999999925494,413,H
2023-04-14T23:15:44Z,qt76109e,serial-reaction-time,1,P,1,1,44,1432,0,4,583.1000000014901,134,H
2023-04-14T23:15:45Z,qt76109e,serial-reaction-time,1,R,1,1,45,1432,0,4,541.4000000059605,344,L
2023-04-14T23:15:46Z,qt76109e,serial-reaction-time,1,P,1,1,46,1432,0,3,591.5999999940395,443,H
2023-04-14T23:15:46Z,qt76109e,serial-reaction-time,NA,R,1,1,47,1432,0,2,287.3999999985099,432,L
2023-04-14T23:15:47Z,qt76109e,serial-reaction-time,1,R,1,0,47,1432,0,2,527.6000000014901,432,L
2023-04-14T23:15:47Z,qt76109e,serial-reaction-time,1,P,1,1,48,1432,0,2,269.30000000447035,322,H
2023-04-14T23:15:48Z,qt76109e,serial-reaction-time,1,R,1,1,49,1432,0,1,456.19999999552965,221,H
2023-04-14T23:15:48Z,qt76109e,serial-reaction-time,1,P,1,1,50,1432,0,1,218.89999999850988,211,H
2023-04-14T23:15:48Z,qt76109e,serial-reaction-time,1,R,1,1,51,1432,0,1,299,111,R
2023-04-14T23:15:49Z,qt76109e,serial-reaction-time,1,P,1,1,52,1432,0,4,377,114,H
2023-04-14T23:15:49Z,qt76109e,serial-reaction-time,1,R,1,1,53,1432,0,3,436,143,L
2023-04-14T23:15:50Z,qt76109e,serial-reaction-time,1,P,1,1,54,1432,0,3,382.80000000447035,433,H
2023-04-14T23:15:50Z,qt76109e,serial-reaction-time,1,R,1,1,55,1432,0,3,326,333,R
2023-04-14T23:15:51Z,qt76109e,serial-reaction-time,1,P,1,1,56,1432,0,2,326.79999999701977,332,H
2023-04-14T23:15:51Z,qt76109e,serial-reaction-time,1,R,1,1,57,1432,0,2,396.20000000298023,322,H
2023-04-14T23:15:52Z,qt76109e,serial-reaction-time,1,P,1,1,58,1432,0,1,337.69999999552965,221,H
2023-04-14T23:15:52Z,qt76109e,serial-reaction-time,1,R,1,1,59,1432,0,4,397.8999999985099,214,L
2023-04-14T23:15:53Z,qt76109e,serial-reaction-time,1,P,1,1,60,1432,0,4,378.3999999985099,144,H
2023-04-14T23:15:53Z,qt76109e,serial-reaction-time,1,R,1,1,61,1432,0,4,395.20000000298023,444,R
2023-04-14T23:15:54Z,qt76109e,serial-reaction-time,NA,P,1,1,62,1432,0,3,399.6000000014901,443,H
2023-04-14T23:15:54Z,qt76109e,serial-reaction-time,1,P,1,0,62,1432,0,3,568.1000000014901,443,H
2023-04-14T23:15:55Z,qt76109e,serial-reaction-time,1,R,1,1,63,1432,0,3,489.5,433,H
2023-04-14T23:15:55Z,qt76109e,serial-reaction-time,1,P,1,1,64,1432,0,2,361.29999999701977,332,H
2023-04-14T23:15:56Z,qt76109e,serial-reaction-time,1,R,1,1,65,1432,0,3,431,323,T
2023-04-14T23:15:56Z,qt76109e,serial-reaction-time,1,P,1,1,66,1432,0,1,374.29999999701977,231,H
2023-04-14T23:15:57Z,qt76109e,serial-reaction-time,1,R,1,1,67,1432,0,3,536.5,313,T
2023-04-14T23:15:57Z,qt76109e,serial-reaction-time,1,P,1,1,68,1432,0,4,374.5,134,H
2023-04-14T23:15:58Z,qt76109e,serial-reaction-time,1,R,1,1,69,1432,0,4,456.70000000298023,344,L
2023-04-14T23:15:59Z,qt76109e,serial-reaction-time,1,P,1,1,70,1432,0,3,456.6000000014901,443,H
2023-04-14T23:15:59Z,qt76109e,serial-reaction-time,1,R,1,1,71,1432,0,1,440.5,431,L
2023-04-14T23:16:00Z,qt76109e,serial-reaction-time,NA,P,1,1,72,1432,0,2,383.8999999985099,312,H
2023-04-14T23:16:00Z,qt76109e,serial-reaction-time,1,P,1,0,72,1432,0,2,664.9999999925494,312,H
2023-04-14T23:16:01Z,qt76109e,serial-reaction-time,1,R,1,1,73,1432,0,4,439.29999999701977,124,H
2023-04-14T23:16:01Z,qt76109e,serial-reaction-time,1,P,1,1,74,1432,0,1,506.09999999403954,241,H
2023-04-14T23:16:02Z,qt76109e,serial-reaction-time,1,R,1,1,75,1432,0,3,355.90000000596046,413,H
2023-04-14T23:16:02Z,qt76109e,serial-reaction-time,NA,P,1,1,76,1432,0,4,340,134,H
2023-04-14T23:16:02Z,qt76109e,serial-reaction-time,1,P,1,0,76,1432,0,4,468.3999999985099,134,H
2023-04-14T23:16:03Z,qt76109e,serial-reaction-time,1,R,1,1,77,1432,0,1,402.70000000298023,341,L
2023-04-14T23:16:03Z,qt76109e,serial-reaction-time,1,P,1,1,78,1432,0,3,327.19999999552965,413,H
2023-04-14T23:16:04Z,qt76109e,serial-reaction-time,1,R,1,1,79,1432,0,2,541.6000000014901,132,L
2023-04-14T23:16:04Z,qt76109e,serial-reaction-time,1,P,1,1,80,1432,0,2,339.1000000014901,322,H
2023-04-14T23:16:09Z,qt76109e,html-keyboard-response,NA,NA,NA,NA,NA,NA,NA,NA,NA,NA,NA
2023-04-14T23:16:20Z,qt76109e,html-keyboard-response,NA,NA,NA,NA,NA,NA,NA,NA,NA,NA,NA
2023-04-14T23:16:22Z,qt76109e,serial-reaction-time,1,R,2,1,1,1432,0,1,505.80000000447035,1,X
2023-04-14T23:16:22Z,qt76109e,serial-reaction-time,1,P,2,1,2,1432,0,1,279,11,X
2023-04-14T23:16:23Z,qt76109e,serial-reaction-time,1,R,2,1,3,1432,0,1,234.5,111,R
2023-04-14T23:16:23Z,qt76109e,serial-reaction-time,1,P,2,1,4,1432,0,4,318.69999999552965,114,H
2023-04-14T23:16:24Z,qt76109e,serial-reaction-time,1,R,2,1,5,1432,0,2,402.30000000447035,142,L
2023-04-14T23:16:24Z,qt76109e,serial-reaction-time,1,P,2,1,6,1432,0,3,447.6000000014901,423,H
2023-04-14T23:16:25Z,qt76109e,serial-reaction-time,1,R,2,1,7,1432,0,4,331.79999999701977,234,L
2023-04-14T23:16:25Z,qt76109e,serial-reaction-time,1,P,2,1,8,1432,0,2,425.5,342,H
2023-04-14T23:16:26Z,qt76109e,serial-reaction-time,1,R,2,1,9,1432,0,3,365,423,H
2023-04-14T23:16:26Z,qt76109e,serial-reaction-time,1,P,2,1,10,1432,0,1,396.3999999985099,231,H
2023-04-14T23:16:27Z,qt76109e,serial-reaction-time,1,R,2,1,11,1432,0,3,446,313,T
2023-04-14T23:16:27Z,qt76109e,serial-reaction-time,1,P,2,1,12,1432,0,4,303.5,134,H
2023-04-14T23:16:28Z,qt76109e,serial-reaction-time,1,R,2,1,13,1432,0,4,381.5,344,L
2023-04-14T23:16:28Z,qt76109e,serial-reaction-time,1,P,2,1,14,1432,0,3,370.29999999701977,443,H
2023-04-14T23:16:29Z,qt76109e,serial-reaction-time,1,R,2,1,15,1432,0,4,438.20000000298023,434,T
2023-04-14T23:16:29Z,qt76109e,serial-reaction-time,1,P,2,1,16,1432,0,2,458.19999999552965,342,H
2023-04-14T23:16:30Z,qt76109e,serial-reaction-time,1,R,2,1,17,1432,0,1,404.69999999552965,421,L
2023-04-14T23:16:31Z,qt76109e,serial-reaction-time,1,P,2,1,18,1432,0,1,438.80000000447035,211,H
2023-04-14T23:16:31Z,qt76109e,serial-reaction-time,NA,R,2,1,19,1432,0,4,423.5,114,H
2023-04-14T23:16:31Z,qt76109e,serial-reaction-time,1,R,2,0,19,1432,0,4,529.8000000044703,114,H
2023-04-14T23:16:32Z,qt76109e,serial-reaction-time,1,P,2,1,20,1432,0,4,334.20000000298023,144,H
2023-04-14T23:16:32Z,qt76109e,serial-reaction-time,1,R,2,1,21,1432,0,2,422.40000000596046,442,L
2023-04-14T23:16:33Z,qt76109e,serial-reaction-time,1,P,2,1,22,1432,0,3,438.79999999701977,423,H
2023-04-14T23:16:33Z,qt76109e,serial-reaction-time,1,R,2,1,23,1432,0,3,330.79999999701977,233,L
2023-04-14T23:16:34Z,qt76109e,serial-reaction-time,1,P,2,1,24,1432,0,2,426.19999999552965,332,H
2023-04-14T23:16:34Z,qt76109e,serial-reaction-time,1,R,2,1,25,1432,0,1,426.8999999985099,321,L
2023-04-14T23:16:35Z,qt76109e,serial-reaction-time,1,P,2,1,26,1432,0,1,470,211,H
2023-04-14T23:16:36Z,qt76109e,serial-reaction-time,1,R,2,1,27,1432,0,2,593.8000000044703,112,L
2023-04-14T23:16:36Z,qt76109e,serial-reaction-time,1,P,2,1,28,1432,0,4,495.20000000298023,124,H
2023-04-14T23:16:37Z,qt76109e,serial-reaction-time,1,R,2,1,29,1432,0,1,530.4000000059605,241,H
2023-04-14T23:16:38Z,qt76109e,serial-reaction-time,1,P,2,1,30,1432,0,3,535,413,H
2023-04-14T23:16:38Z,qt76109e,serial-reaction-time,1,R,2,1,31,1432,0,1,489.5,131,T
2023-04-14T23:16:39Z,qt76109e,serial-reaction-time,1,P,2,1,32,1432,0,2,566.2999999970198,312,H
2023-04-14T23:16:40Z,qt76109e,serial-reaction-time,1,R,2,1,33,1432,0,4,401.70000000298023,124,H
2023-04-14T23:16:40Z,qt76109e,serial-reaction-time,NA,P,2,1,34,1432,0,1,488.6000000014901,241,H
2023-04-14T23:16:40Z,qt76109e,serial-reaction-time,1,P,2,0,34,1432,0,1,489.5,241,H
2023-04-14T23:16:41Z,qt76109e,serial-reaction-time,1,R,2,1,35,1432,0,2,406.29999999701977,412,L
2023-04-14T23:16:41Z,qt76109e,serial-reaction-time,1,P,2,1,36,1432,0,4,345.29999999701977,124,H
2023-04-14T23:16:42Z,qt76109e,serial-reaction-time,1,R,2,1,37,1432,0,3,377.5,243,L
2023-04-14T23:16:42Z,qt76109e,serial-reaction-time,1,P,2,1,38,1432,0,3,335.70000000298023,433,H
2023-04-14T23:16:43Z,qt76109e,serial-reaction-time,1,R,2,1,39,1432,0,1,491.19999999552965,331,L
2023-04-14T23:16:43Z,qt76109e,serial-reaction-time,1,P,2,1,40,1432,0,2,552.2000000029802,312,H
2023-04-14T23:16:44Z,qt76109e,serial-reaction-time,1,R,2,1,41,1432,0,4,435.70000000298023,124,H
2023-04-14T23:16:45Z,qt76109e,serial-reaction-time,1,P,2,1,42,1432,0,1,440.09999999403954,241,H
2023-04-14T23:16:45Z,qt76109e,serial-reaction-time,1,R,2,1,43,1432,0,1,345.6000000014901,411,L
2023-04-14T23:16:46Z,qt76109e,serial-reaction-time,NA,P,2,1,44,1432,0,4,445.5,114,H
2023-04-14T23:16:46Z,qt76109e,serial-reaction-time,1,P,2,0,44,1432,0,4,499,114,H
2023-04-14T23:16:46Z,qt76109e,serial-reaction-time,1,R,2,1,45,1432,0,1,454.6000000014901,141,T
2023-04-14T23:16:47Z,qt76109e,serial-reaction-time,1,P,2,1,46,1432,0,3,597.1999999955297,413,H
2023-04-14T23:16:47Z,qt76109e,serial-reaction-time,1,R,2,1,47,1432,0,3,259.1000000014901,133,L
2023-04-14T23:16:48Z,qt76109e,serial-reaction-time,1,P,2,1,48,1432,0,2,453.1000000014901,332,H
2023-04-14T23:16:49Z,qt76109e,serial-reaction-time,1,R,2,1,49,1432,0,4,831.2000000029802,324,L
2023-04-14T23:16:50Z,qt76109e,serial-reaction-time,1,P,2,1,50,1432,0,1,415.29999999701977,241,H
2023-04-14T23:16:50Z,qt76109e,serial-reaction-time,NA,R,2,1,51,1432,0,3,378.6000000014901,413,H
2023-04-14T23:16:50Z,qt76109e,serial-reaction-time,1,R,2,0,51,1432,0,3,738.6000000014901,413,H
2023-04-14T23:16:51Z,qt76109e,serial-reaction-time,1,P,2,1,52,1432,0,4,749.5,134,H
2023-04-14T23:16:52Z,qt76109e,serial-reaction-time,1,R,2,1,53,1432,0,3,792,343,T
2023-04-14T23:16:53Z,qt76109e,serial-reaction-time,1,P,2,1,54,1432,0,3,587,433,H
2023-04-14T23:16:54Z,qt76109e,serial-reaction-time,1,R,2,1,55,1432,0,3,855.5,333,R
2023-04-14T23:16:54Z,qt76109e,serial-reaction-time,1,P,2,1,56,1432,0,2,416,332,H
2023-04-14T23:16:55Z,qt76109e,serial-reaction-time,1,R,2,1,57,1432,0,3,403,323,T
2023-04-14T23:16:56Z,qt76109e,serial-reaction-time,1,P,2,1,58,1432,0,1,535.8999999985099,231,H
2023-04-14T23:16:56Z,qt76109e,serial-reaction-time,1,R,2,1,59,1432,0,1,267.09999999403954,311,L
2023-04-14T23:16:57Z,qt76109e,serial-reaction-time,1,P,2,1,60,1432,0,4,363.1000000014901,114,H
2023-04-14T23:16:57Z,qt76109e,serial-reaction-time,1,R,2,1,61,1432,0,1,503.19999999552965,141,T
2023-04-14T23:16:58Z,qt76109e,serial-reaction-time,1,P,2,1,62,1432,0,3,513.9000000059605,413,H
2023-04-14T23:16:58Z,qt76109e,serial-reaction-time,1,R,2,1,63,1432,0,4,482.80000000447035,134,H
2023-04-14T23:16:59Z,qt76109e,serial-reaction-time,1,P,2,1,64,1432,0,2,455.8999999985099,342,H
2023-04-14T23:17:00Z,qt76109e,serial-reaction-time,1,R,2,1,65,1432,0,3,471.70000000298023,423,H
2023-04-14T23:17:00Z,qt76109e,serial-reaction-time,1,P,2,1,66,1432,0,1,380.3999999985099,231,H
2023-04-14T23:17:01Z,qt76109e,serial-reaction-time,1,R,2,1,67,1432,0,1,346.20000000298023,311,L
2023-04-14T23:17:01Z,qt76109e,serial-reaction-time,1,P,2,1,68,1432,0,4,328.59999999403954,114,H
2023-04-14T23:17:02Z,qt76109e,serial-reaction-time,1,R,2,1,69,1432,0,2,441.1000000014901,142,L
2023-04-14T23:17:02Z,qt76109e,serial-reaction-time,1,P,2,1,70,1432,0,3,406,423,H
2023-04-14T23:17:03Z,qt76109e,serial-reaction-time,1,R,2,1,71,1432,0,3,466.69999999552965,233,L
2023-04-14T23:17:03Z,qt76109e,serial-reaction-time,1,P,2,1,72,1432,0,2,446.20000000298023,332,H
2023-04-14T23:17:04Z,qt76109e,serial-reaction-time,1,R,2,1,73,1432,0,4,388.69999999552965,324,L
2023-04-14T23:17:05Z,qt76109e,serial-reaction-time,1,P,2,1,74,1432,0,1,438.20000000298023,241,H
2023-04-14T23:17:05Z,qt76109e,serial-reaction-time,1,R,2,1,75,1432,0,1,387.3999999985099,411,L
2023-04-14T23:17:06Z,qt76109e,serial-reaction-time,1,P,2,1,76,1432,0,4,367.79999999701977,114,H
2023-04-14T23:17:06Z,qt76109e,serial-reaction-time,1,R,2,1,77,1432,0,2,450.70000000298023,142,L
2023-04-14T23:17:07Z,qt76109e,serial-reaction-time,1,P,2,1,78,1432,0,3,391.29999999701977,423,H
2023-04-14T23:17:07Z,qt76109e,serial-reaction-time,1,R,2,1,79,1432,0,3,409.1000000014901,233,L
2023-04-14T23:17:08Z,qt76109e,serial-reaction-time,1,P,2,1,80,1432,0,2,455,332,H
2023-04-14T23:17:13Z,qt76109e,html-keyboard-response,NA,NA,NA,NA,NA,NA,NA,NA,NA,NA,NA
2023-04-14T23:17:14Z,qt76109e,html-keyboard-response,NA,NA,NA,NA,NA,NA,NA,NA,NA,NA,NA
2023-04-14T23:17:15Z,qt76109e,serial-reaction-time,1,R,3,1,1,1432,0,2,697.5,2,X
2023-04-14T23:17:16Z,qt76109e,serial-reaction-time,1,P,3,1,2,1432,0,1,423.19999999552965,21,X
2023-04-14T23:17:17Z,qt76109e,serial-reaction-time,1,R,3,1,3,1432,0,4,394.8999999985099,214,L
2023-04-14T23:17:17Z,qt76109e,serial-reaction-time,1,P,3,1,4,1432,0,4,402.19999999552965,144,H
2023-04-14T23:17:18Z,qt76109e,serial-reaction-time,1,R,3,1,5,1432,0,3,418.09999999403954,443,H
2023-04-14T23:17:18Z,qt76109e,serial-reaction-time,1,P,3,1,6,1432,0,3,417.6000000014901,433,H
2023-04-14T23:17:19Z,qt76109e,serial-reaction-time,1,R,3,1,7,1432,0,1,439.70000000298023,331,L
2023-04-14T23:17:19Z,qt76109e,serial-reaction-time,NA,P,3,1,8,1432,0,2,432.3999999985099,312,H
2023-04-14T23:17:20Z,qt76109e,serial-reaction-time,1,P,3,0,8,1432,0,2,769.5999999940395,312,H
2023-04-14T23:17:20Z,qt76109e,serial-reaction-time,1,R,3,1,9,1432,0,1,533.1999999955297,121,T
2023-04-14T23:17:21Z,qt76109e,serial-reaction-time,1,P,3,1,10,1432,0,1,491.8999999985099,211,H
2023-04-14T23:17:21Z,qt76109e,serial-reaction-time,1,R,3,1,11,1432,0,3,398.29999999701977,113,L
2023-04-14T23:17:22Z,qt76109e,serial-reaction-time,1,P,3,1,12,1432,0,4,568.8999999985099,134,H
2023-04-14T23:17:23Z,qt76109e,serial-reaction-time,1,R,3,1,13,1432,0,3,369.69999999552965,343,T
2023-04-14T23:17:23Z,qt76109e,serial-reaction-time,1,P,3,1,14,1432,0,3,371.80000000447035,433,H
2023-04-14T23:17:24Z,qt76109e,serial-reaction-time,1,R,3,1,15,1432,0,3,567.5,333,R
2023-04-14T23:17:25Z,qt76109e,serial-reaction-time,1,P,3,1,16,1432,0,2,521,332,H
2023-04-14T23:17:25Z,qt76109e,serial-reaction-time,1,R,3,1,17,1432,0,2,522.2999999970198,322,H
2023-04-14T23:17:26Z,qt76109e,serial-reaction-time,1,P,3,1,18,1432,0,1,376.19999999552965,221,H
2023-04-14T23:17:26Z,qt76109e,serial-reaction-time,1,R,3,1,19,1432,0,1,462.90000000596046,211,H
2023-04-14T23:17:27Z,qt76109e,serial-reaction-time,1,P,3,1,20,1432,0,4,389,114,H
2023-04-14T23:17:28Z,qt76109e,serial-reaction-time,1,R,3,1,21,1432,0,4,547,144,H
2023-04-14T23:17:28Z,qt76109e,serial-reaction-time,1,P,3,1,22,1432,0,3,400.29999999701977,443,H
2023-04-14T23:17:29Z,qt76109e,serial-reaction-time,1,R,3,1,23,1432,0,2,455.29999999701977,432,L
2023-04-14T23:17:29Z,qt76109e,serial-reaction-time,1,P,3,1,24,1432,0,2,369.40000000596046,322,H
2023-04-14T23:17:30Z,qt76109e,serial-reaction-time,1,R,3,1,25,1432,0,4,437.5,224,L
2023-04-14T23:17:30Z,qt76109e,serial-reaction-time,NA,P,3,1,26,1432,0,1,380.5,241,H
2023-04-14T23:17:30Z,qt76109e,serial-reaction-time,1,P,3,0,26,1432,0,1,415.79999999701977,241,H
2023-04-14T23:17:31Z,qt76109e,serial-reaction-time,1,R,3,1,27,1432,0,2,379.79999999701977,412,L
2023-04-14T23:17:31Z,qt76109e,serial-reaction-time,1,P,3,1,28,1432,0,4,444.19999999552965,124,H
2023-04-14T23:17:32Z,qt76109e,serial-reaction-time,1,R,3,1,29,1432,0,4,458.29999999701977,244,L
2023-04-14T23:17:32Z,qt76109e,serial-reaction-time,NA,P,3,1,30,1432,0,3,381,443,H
2023-04-14T23:17:33Z,qt76109e,serial-reaction-time,1,P,3,0,30,1432,0,3,515.7000000029802,443,H
2023-04-14T23:17:33Z,qt76109e,serial-reaction-time,1,R,3,1,31,1432,0,2,474.3999999985099,432,L
2023-04-14T23:17:34Z,qt76109e,serial-reaction-time,1,P,3,1,32,1432,0,2,221.4000000059605,322,H
2023-04-14T23:17:34Z,qt76109e,serial-reaction-time,1,R,3,1,33,1432,0,4,454.3999999985099,224,L
2023-04-14T23:17:35Z,qt76109e,serial-reaction-time,1,P,3,1,34,1432,0,1,443.6000000014901,241,H
2023-04-14T23:17:35Z,qt76109e,serial-reaction-time,1,R,3,1,35,1432,0,3,403.80000000447035,413,H
2023-04-14T23:17:36Z,qt76109e,serial-reaction-time,1,P,3,1,36,1432,0,4,461.90000000596046,134,H
2023-04-14T23:17:37Z,qt76109e,serial-reaction-time,1,R,3,1,37,1432,0,3,610.6000000014901,343,T
2023-04-14T23:17:37Z,qt76109e,serial-reaction-time,1,P,3,1,38,1432,0,3,379.6000000014901,433,H
2023-04-14T23:17:38Z,qt76109e,serial-reaction-time,1,R,3,1,39,1432,0,2,732.5,332,H
2023-04-14T23:17:38Z,qt76109e,serial-reaction-time,1,P,3,1,40,1432,0,2,365.8999999985099,322,H
2023-04-14T23:17:39Z,qt76109e,serial-reaction-time,1,R,3,1,41,1432,0,3,428.79999999701977,223,L
2023-04-14T23:17:40Z,qt76109e,serial-reaction-time,1,P,3,1,42,1432,0,1,467.30000000447035,231,H
2023-04-14T23:17:40Z,qt76109e,serial-reaction-time,1,R,3,1,43,1432,0,4,439.40000000596046,314,L
2023-04-14T23:17:41Z,qt76109e,serial-reaction-time,1,P,3,1,44,1432,0,4,535.1000000014901,144,H
2023-04-14T23:17:41Z,qt76109e,serial-reaction-time,1,R,3,1,45,1432,0,2,453.8999999985099,442,L
2023-04-14T23:17:42Z,qt76109e,serial-reaction-time,1,P,3,1,46,1432,0,3,336.30000000447035,423,H
2023-04-14T23:17:42Z,qt76109e,serial-reaction-time,1,R,3,1,47,1432,0,3,325.20000000298023,233,L
2023-04-14T23:17:43Z,qt76109e,serial-reaction-time,1,P,3,1,48,1432,0,2,382.19999999552965,332,H
2023-04-14T23:17:43Z,qt76109e,serial-reaction-time,1,R,3,1,49,1432,0,2,338.70000000298023,322,H
2023-04-14T23:17:44Z,qt76109e,serial-reaction-time,1,P,3,1,50,1432,0,1,445,221,H
2023-04-14T23:17:44Z,qt76109e,serial-reaction-time,1,R,3,1,51,1432,0,3,406.30000000447035,213,L
2023-04-14T23:17:45Z,qt76109e,serial-reaction-time,1,P,3,1,52,1432,0,4,399.59999999403954,134,H
2023-04-14T23:17:46Z,qt76109e,serial-reaction-time,1,R,3,1,53,1432,0,2,443.5,342,H
2023-04-14T23:17:46Z,qt76109e,serial-reaction-time,1,P,3,1,54,1432,0,3,430.79999999701977,423,H
2023-04-14T23:17:47Z,qt76109e,serial-reaction-time,1,R,3,1,55,1432,0,2,405.29999999701977,232,T
2023-04-14T23:17:47Z,qt76109e,serial-reaction-time,1,P,3,1,56,1432,0,2,444.70000000298023,322,H
2023-04-14T23:17:48Z,qt76109e,serial-reaction-time,1,R,3,1,57,1432,0,1,363.6000000014901,221,H
2023-04-14T23:17:48Z,qt76109e,serial-reaction-time,1,P,3,1,58,1432,0,1,436.80000000447035,211,H
2023-04-14T23:17:49Z,qt76109e,serial-reaction-time,1,R,3,1,59,1432,0,2,360.29999999701977,112,L
2023-04-14T23:17:49Z,qt76109e,serial-reaction-time,1,P,3,1,60,1432,0,4,414.6000000014901,124,H
2023-04-14T23:17:50Z,qt76109e,serial-reaction-time,1,R,3,1,61,1432,0,4,450.80000000447035,244,L
2023-04-14T23:17:50Z,qt76109e,serial-reaction-time,1,P,3,1,62,1432,0,3,381.30000000447035,443,H
2023-04-14T23:17:51Z,qt76109e,serial-reaction-time,1,R,3,1,63,1432,0,1,478.09999999403954,431,L
2023-04-14T23:17:52Z,qt76109e,serial-reaction-time,1,P,3,1,64,1432,0,2,452.1000000014901,312,H
2023-04-14T23:17:52Z,qt76109e,serial-reaction-time,1,R,3,1,65,1432,0,2,436.29999999701977,122,L
2023-04-14T23:17:53Z,qt76109e,serial-reaction-time,1,P,3,1,66,1432,0,1,409.69999999552965,221,H
2023-04-14T23:17:53Z,qt76109e,serial-reaction-time,1,R,3,1,67,1432,0,4,434,214,L
2023-04-14T23:17:54Z,qt76109e,serial-reaction-time,1,P,3,1,68,1432,0,4,357.20000000298023,144,H
2023-04-14T23:17:54Z,qt76109e,serial-reaction-time,1,R,3,1,69,1432,0,3,398.20000000298023,443,H
2023-04-14T23:17:55Z,qt76109e,serial-reaction-time,1,P,3,1,70,1432,0,3,474.3999999985099,433,H
2023-04-14T23:17:56Z,qt76109e,serial-reaction-time,1,R,3,1,71,1432,0,4,413.6000000014901,334,L
2023-04-14T23:17:56Z,qt76109e,serial-reaction-time,1,P,3,1,72,1432,0,2,488.3999999985099,342,H
2023-04-14T23:17:57Z,qt76109e,serial-reaction-time,1,R,3,1,73,1432,0,1,411,421,L
2023-04-14T23:17:57Z,qt76109e,serial-reaction-time,1,P,3,1,74,1432,0,1,382.30000000447035,211,H
2023-04-14T23:17:58Z,qt76109e,serial-reaction-time,1,R,3,1,75,1432,0,4,348,114,H
2023-04-14T23:17:58Z,qt76109e,serial-reaction-time,1,P,3,1,76,1432,0,4,495,144,H
2023-04-14T23:17:59Z,qt76109e,serial-reaction-time,1,R,3,1,77,1432,0,2,414.19999999552965,442,L
2023-04-14T23:17:59Z,qt76109e,serial-reaction-time,1,P,3,1,78,1432,0,3,451.29999999701977,423,H
2023-04-14T23:18:00Z,qt76109e,serial-reaction-time,1,R,3,1,79,1432,0,4,395.29999999701977,234,L
2023-04-14T23:18:01Z,qt76109e,serial-reaction-time,1,P,3,1,80,1432,0,2,438.3999999985099,342,H
2023-04-14T23:18:06Z,qt76109e,html-keyboard-response,NA,NA,NA,NA,NA,NA,NA,NA,NA,NA,NA
2023-04-14T23:18:06Z,qt76109e,html-keyboard-response,NA,NA,NA,NA,NA,NA,NA,NA,NA,NA,NA
2023-04-14T23:18:08Z,qt76109e,serial-reaction-time,1,R,4,1,1,1432,0,3,644.7000000029802,3,X
2023-04-14T23:18:09Z,qt76109e,serial-reaction-time,1,P,4,1,2,1432,0,1,424.6000000014901,31,X
2023-04-14T23:18:09Z,qt76109e,serial-reaction-time,1,R,4,1,3,1432,0,4,348.3999999985099,314,L
2023-04-14T23:18:10Z,qt76109e,serial-reaction-time,1,P,4,1,4,1432,0,4,401.30000000447035,144,H
2023-04-14T23:18:10Z,qt76109e,serial-reaction-time,1,R,4,1,5,1432,0,2,423.5,442,L
2023-04-14T23:18:11Z,qt76109e,serial-reaction-time,1,P,4,1,6,1432,0,3,370.69999999552965,423,H
2023-04-14T23:18:11Z,qt76109e,serial-reaction-time,1,R,4,1,7,1432,0,3,425.70000000298023,233,L
2023-04-14T23:18:12Z,qt76109e,serial-reaction-time,1,P,4,1,8,1432,0,2,392.1000000014901,332,H
2023-04-14T23:18:12Z,qt76109e,serial-reaction-time,1,R,4,1,9,1432,0,1,430.20000000298023,321,L
2023-04-14T23:18:13Z,qt76109e,serial-reaction-time,1,P,4,1,10,1432,0,1,442.5,211,H
2023-04-14T23:18:13Z,qt76109e,serial-reaction-time,1,R,4,1,11,1432,0,4,383.5,114,H
2023-04-14T23:18:14Z,qt76109e,serial-reaction-time,1,P,4,1,12,1432,0,4,420.3999999985099,144,H
2023-04-14T23:18:15Z,qt76109e,serial-reaction-time,1,R,4,1,13,1432,0,1,452.1000000014901,441,L
2023-04-14T23:18:15Z,qt76109e,serial-reaction-time,1,P,4,1,14,1432,0,3,384.19999999552965,413,H
2023-04-14T23:18:16Z,qt76109e,serial-reaction-time,1,R,4,1,15,1432,0,1,385,131,T
2023-04-14T23:18:16Z,qt76109e,serial-reaction-time,1,P,4,1,16,1432,0,2,491.20000000298023,312,H
2023-04-14T23:18:17Z,qt76109e,serial-reaction-time,1,R,4,1,17,1432,0,4,413.1000000014901,124,H
2023-04-14T23:18:17Z,qt76109e,serial-reaction-time,1,P,4,1,18,1432,0,1,448.3999999985099,241,H
2023-04-14T23:18:18Z,qt76109e,serial-reaction-time,1,R,4,1,19,1432,0,3,419.5,413,H
2023-04-14T23:18:18Z,qt76109e,serial-reaction-time,1,P,4,1,20,1432,0,4,467.19999999552965,134,H
2023-04-14T23:18:19Z,qt76109e,serial-reaction-time,1,R,4,1,21,1432,0,1,508.3999999985099,341,L
2023-04-14T23:18:20Z,qt76109e,serial-reaction-time,1,P,4,1,22,1432,0,3,567.2999999970198,413,H
2023-04-14T23:18:20Z,qt76109e,serial-reaction-time,1,R,4,1,23,1432,0,4,439.5,134,H
2023-04-14T23:18:21Z,qt76109e,serial-reaction-time,1,P,4,1,24,1432,0,2,654,342,H
2023-04-14T23:18:22Z,qt76109e,serial-reaction-time,1,R,4,1,25,1432,0,3,809.7999999970198,423,H
2023-04-14T23:18:23Z,qt76109e,serial-reaction-time,1,P,4,1,26,1432,0,1,427.1000000014901,231,H
2023-04-14T23:18:23Z,qt76109e,serial-reaction-time,1,R,4,1,27,1432,0,3,436.69999999552965,313,T
2023-04-14T23:18:24Z,qt76109e,serial-reaction-time,1,P,4,1,28,1432,0,4,381.70000000298023,134,H
2023-04-14T23:18:24Z,qt76109e,serial-reaction-time,1,R,4,1,29,1432,0,3,408.5,343,T
2023-04-14T23:18:25Z,qt76109e,serial-reaction-time,1,P,4,1,30,1432,0,3,418.20000000298023,433,H
2023-04-14T23:18:25Z,qt76109e,serial-reaction-time,1,R,4,1,31,1432,0,2,415.79999999701977,332,H
2023-04-14T23:18:26Z,qt76109e,serial-reaction-time,1,P,4,1,32,1432,0,2,416.3999999985099,322,H
2023-04-14T23:18:27Z,qt76109e,serial-reaction-time,1,R,4,1,33,1432,0,3,415.79999999701977,223,L
2023-04-14T23:18:27Z,qt76109e,serial-reaction-time,1,P,4,1,34,1432,0,1,500.3999999985099,231,H
2023-04-14T23:18:28Z,qt76109e,serial-reaction-time,1,R,4,1,35,1432,0,2,451.6000000014901,312,H
2023-04-14T23:18:28Z,qt76109e,serial-reaction-time,1,P,4,1,36,1432,0,4,607.3999999985099,124,H
2023-04-14T23:18:29Z,qt76109e,serial-reaction-time,1,R,4,1,37,1432,0,4,567.1000000014901,244,L
2023-04-14T23:18:30Z,qt76109e,serial-reaction-time,1,P,4,1,38,1432,0,3,524.4000000059605,443,H
2023-04-14T23:18:30Z,qt76109e,serial-reaction-time,1,R,4,1,39,1432,0,2,411.19999999552965,432,L
2023-04-14T23:18:31Z,qt76109e,serial-reaction-time,1,P,4,1,40,1432,0,2,380,322,H
2023-04-14T23:18:31Z,qt76109e,serial-reaction-time,1,R,4,1,41,1432,0,2,380.1000000014901,222,R
2023-04-14T23:18:32Z,qt76109e,serial-reaction-time,1,P,4,1,42,1432,0,1,417.29999999701977,221,H
2023-04-14T23:18:33Z,qt76109e,serial-reaction-time,1,R,4,1,43,1432,0,3,417.70000000298023,213,L
2023-04-14T23:18:33Z,qt76109e,serial-reaction-time,1,P,4,1,44,1432,0,4,367.30000000447035,134,H
2023-04-14T23:18:34Z,qt76109e,serial-reaction-time,1,R,4,1,45,1432,0,2,439,342,H
2023-04-14T23:18:34Z,qt76109e,serial-reaction-time,1,P,4,1,46,1432,0,3,392.8999999985099,423,H
2023-04-14T23:18:35Z,qt76109e,serial-reaction-time,1,R,4,1,47,1432,0,4,397.70000000298023,234,L
2023-04-14T23:18:35Z,qt76109e,serial-reaction-time,1,P,4,1,48,1432,0,2,424.70000000298023,342,H
2023-04-14T23:18:36Z,qt76109e,serial-reaction-time,1,R,4,1,49,1432,0,2,426.70000000298023,422,L
2023-04-14T23:18:36Z,qt76109e,serial-reaction-time,1,P,4,1,50,1432,0,1,436.3999999985099,221,H
2023-04-14T23:18:37Z,qt76109e,serial-reaction-time,1,R,4,1,51,1432,0,2,547.1999999955297,212,T
2023-04-14T23:18:38Z,qt76109e,serial-reaction-time,1,P,4,1,52,1432,0,4,379.20000000298023,124,H
2023-04-14T23:18:38Z,qt76109e,serial-reaction-time,1,R,4,1,53,1432,0,3,457.29999999701977,243,L
2023-04-14T23:18:39Z,qt76109e,serial-reaction-time,1,P,4,1,54,1432,0,3,322.3999999985099,433,H
2023-04-14T23:18:39Z,qt76109e,serial-reaction-time,1,R,4,1,55,1432,0,3,500.29999999701977,333,R
2023-04-14T23:18:40Z,qt76109e,serial-reaction-time,1,P,4,1,56,1432,0,2,279.09999999403954,332,H
2023-04-14T23:18:40Z,qt76109e,serial-reaction-time,1,R,4,1,57,1432,0,3,406.69999999552965,323,T
2023-04-14T23:18:41Z,qt76109e,serial-reaction-time,1,P,4,1,58,1432,0,1,466.40000000596046,231,H
2023-04-14T23:18:41Z,qt76109e,serial-reaction-time,NA,R,4,1,59,1432,0,2,324.29999999701977,312,H
2023-04-14T23:18:42Z,qt76109e,serial-reaction-time,1,R,4,0,59,1432,0,2,634.8999999985099,312,H
2023-04-14T23:18:42Z,qt76109e,serial-reaction-time,1,P,4,1,60,1432,0,4,474.8999999985099,124,H
2023-04-14T23:18:43Z,qt76109e,serial-reaction-time,1,R,4,1,61,1432,0,4,463.29999999701977,244,L
2023-04-14T23:18:43Z,qt76109e,serial-reaction-time,1,P,4,1,62,1432,0,3,444.6000000014901,443,H
2023-04-14T23:18:44Z,qt76109e,serial-reaction-time,1,R,4,1,63,1432,0,1,509,431,L
2023-04-14T23:18:45Z,qt76109e,serial-reaction-time,1,P,4,1,64,1432,0,2,411,312,H
2023-04-14T23:18:45Z,qt76109e,serial-reaction-time,1,R,4,1,65,1432,0,2,457.30000000447035,122,L
2023-04-14T23:18:46Z,qt76109e,serial-reaction-time,1,P,4,1,66,1432,0,1,318.8999999985099,221,H
2023-04-14T23:18:46Z,qt76109e,serial-reaction-time,1,R,4,1,67,1432,0,1,682,211,H
2023-04-14T23:18:47Z,qt76109e,serial-reaction-time,NA,P,4,1,68,1432,0,4,406.8999999985099,114,H
2023-04-14T23:18:47Z,qt76109e,serial-reaction-time,1,P,4,0,68,1432,0,4,732,114,H
2023-04-14T23:18:48Z,qt76109e,serial-reaction-time,1,R,4,1,69,1432,0,4,361.1000000014901,144,H
2023-04-14T23:18:48Z,qt76109e,serial-reaction-time,1,P,4,1,70,1432,0,3,420.20000000298023,443,H
2023-04-14T23:18:49Z,qt76109e,serial-reaction-time,1,R,4,1,71,1432,0,4,401.29999999701977,434,T
2023-04-14T23:18:49Z,qt76109e,serial-reaction-time,1,P,4,1,72,1432,0,2,422.1000000014901,342,H
2023-04-14T23:18:50Z,qt76109e,serial-reaction-time,1,R,4,1,73,1432,0,2,359.1000000014901,422,L
2023-04-14T23:18:50Z,qt76109e,serial-reaction-time,1,P,4,1,74,1432,0,1,443.3999999985099,221,H
2023-04-14T23:18:51Z,qt76109e,serial-reaction-time,1,R,4,1,75,1432,0,2,481.1000000014901,212,T
2023-04-14T23:18:52Z,qt76109e,serial-reaction-time,1,P,4,1,76,1432,0,4,412.70000000298023,124,H
2023-04-14T23:18:52Z,qt76109e,serial-reaction-time,NA,R,4,1,77,1432,0,1,436.59999999403954,241,H
2023-04-14T23:18:52Z,qt76109e,serial-reaction-time,1,R,4,0,77,1432,0,1,437.3999999910593,241,H
2023-04-14T23:18:53Z,qt76109e,serial-reaction-time,1,P,4,1,78,1432,0,3,467.30000000447035,413,H
2023-04-14T23:18:53Z,qt76109e,serial-reaction-time,1,R,4,1,79,1432,0,4,425.5,134,H
2023-04-14T23:18:54Z,qt76109e,serial-reaction-time,1,P,4,1,80,1432,0,2,400.70000000298023,342,H
2023-04-14T23:18:59Z,qt76109e,html-keyboard-response,NA,NA,NA,NA,NA,NA,NA,NA,NA,NA,NA
2023-04-14T23:18:59Z,qt76109e,html-keyboard-response,NA,NA,NA,NA,NA,NA,NA,NA,NA,NA,NA
2023-04-14T23:19:01Z,qt76109e,serial-reaction-time,1,R,5,1,1,1432,0,1,512.5,1,X
2023-04-14T23:19:01Z,qt76109e,serial-reaction-time,1,P,5,1,2,1432,0,1,443.30000000447035,11,X
2023-04-14T23:19:02Z,qt76109e,serial-reaction-time,1,R,5,1,3,1432,0,3,414.8999999985099,113,L
2023-04-14T23:19:02Z,qt76109e,serial-reaction-time,1,P,5,1,4,1432,0,4,413.29999999701977,134,H
2023-04-14T23:19:03Z,qt76109e,serial-reaction-time,1,R,5,1,5,1432,0,1,426.3999999985099,341,L
2023-04-14T23:19:03Z,qt76109e,serial-reaction-time,1,P,5,1,6,1432,0,3,405.09999999403954,413,H
2023-04-14T23:19:04Z,qt76109e,serial-reaction-time,1,R,5,1,7,1432,0,2,405,132,L
2023-04-14T23:19:05Z,qt76109e,serial-reaction-time,1,P,5,1,8,1432,0,2,384.6000000014901,322,H
2023-04-14T23:19:05Z,qt76109e,serial-reaction-time,1,R,5,1,9,1432,0,2,379.70000000298023,222,R
2023-04-14T23:19:06Z,qt76109e,serial-reaction-time,1,P,5,1,10,1432,0,1,438.1000000014901,221,H
2023-04-14T23:19:06Z,qt76109e,serial-reaction-time,1,R,5,1,11,1432,0,1,400,211,H
2023-04-14T23:19:07Z,qt76109e,serial-reaction-time,1,P,5,1,12,1432,0,4,369,114,H
2023-04-14T23:19:07Z,qt76109e,serial-reaction-time,1,R,5,1,13,1432,0,2,414.79999999701977,142,L
2023-04-14T23:19:08Z,qt76109e,serial-reaction-time,1,P,5,1,14,1432,0,3,374.6000000014901,423,H
2023-04-14T23:19:08Z,qt76109e,serial-reaction-time,1,R,5,1,15,1432,0,1,439.1000000014901,231,H
2023-04-14T23:19:09Z,qt76109e,serial-reaction-time,1,P,5,1,16,1432,0,2,474.6000000014901,312,H
2023-04-14T23:19:10Z,qt76109e,serial-reaction-time,NA,R,5,1,17,1432,0,4,446.40000000596046,124,H
2023-04-14T23:19:10Z,qt76109e,serial-reaction-time,1,R,5,0,17,1432,0,4,763.5000000074506,124,H
2023-04-14T23:19:10Z,qt76109e,serial-reaction-time,1,P,5,1,18,1432,0,1,450,241,H
2023-04-14T23:19:11Z,qt76109e,serial-reaction-time,1,R,5,1,19,1432,0,2,462.30000000447035,412,L
2023-04-14T23:19:12Z,qt76109e,serial-reaction-time,1,P,5,1,20,1432,0,4,950.8000000044703,124,H
2023-04-14T23:19:13Z,qt76109e,serial-reaction-time,1,R,5,1,21,1432,0,2,421.19999999552965,242,T
2023-04-14T23:19:13Z,qt76109e,serial-reaction-time,1,P,5,1,22,1432,0,3,464.20000000298023,423,H
2023-04-14T23:19:14Z,qt76109e,serial-reaction-time,1,R,5,1,23,1432,0,4,495.8999999985099,234,L
2023-04-14T23:19:14Z,qt76109e,serial-reaction-time,1,P,5,1,24,1432,0,2,313.6000000014901,342,H
2023-04-14T23:19:15Z,qt76109e,serial-reaction-time,1,R,5,1,25,1432,0,1,963.2999999970198,421,L
2023-04-14T23:19:16Z,qt76109e,serial-reaction-time,1,P,5,1,26,1432,0,1,428.5,211,H
2023-04-14T23:19:17Z,qt76109e,serial-reaction-time,1,R,5,1,27,1432,0,4,441.29999999701977,114,H
2023-04-14T23:19:17Z,qt76109e,serial-reaction-time,1,P,5,1,28,1432,0,4,377.1000000014901,144,H
2023-04-14T23:19:18Z,qt76109e,serial-reaction-time,1,R,5,1,29,1432,0,1,448.69999999552965,441,L
2023-04-14T23:19:18Z,qt76109e,serial-reaction-time,NA,P,5,1,30,1432,0,3,382.3999999985099,413,H
2023-04-14T23:19:19Z,qt76109e,serial-reaction-time,1,P,5,0,30,1432,0,3,888.6999999955297,413,H
2023-04-14T23:19:19Z,qt76109e,serial-reaction-time,1,R,5,1,31,1432,0,3,458.8999999985099,133,L
2023-04-14T23:19:20Z,qt76109e,serial-reaction-time,1,P,5,1,32,1432,0,2,481.70000000298023,332,H
2023-04-14T23:19:21Z,qt76109e,serial-reaction-time,1,R,5,1,33,1432,0,1,469.1000000014901,321,L
2023-04-14T23:19:21Z,qt76109e,serial-reaction-time,1,P,5,1,34,1432,0,1,316.69999999552965,211,H
2023-04-14T23:19:22Z,qt76109e,serial-reaction-time,1,R,5,1,35,1432,0,4,403.79999999701977,114,H
2023-04-14T23:19:22Z,qt76109e,serial-reaction-time,1,P,5,1,36,1432,0,4,398,144,H
2023-04-14T23:19:23Z,qt76109e,serial-reaction-time,1,R,5,1,37,1432,0,4,824.7000000029802,444,R
2023-04-14T23:19:24Z,qt76109e,serial-reaction-time,1,P,5,1,38,1432,0,3,451.20000000298023,443,H
2023-04-14T23:19:24Z,qt76109e,serial-reaction-time,1,R,5,1,39,1432,0,3,418.59999999403954,433,H
2023-04-14T23:19:25Z,qt76109e,serial-reaction-time,1,P,5,1,40,1432,0,2,419.20000000298023,332,H
2023-04-14T23:19:25Z,qt76109e,serial-reaction-time,1,R,5,1,41,1432,0,2,424.79999999701977,322,H
2023-04-14T23:19:26Z,qt76109e,serial-reaction-time,1,P,5,1,42,1432,0,1,406.1000000014901,221,H
2023-04-14T23:19:26Z,qt76109e,serial-reaction-time,1,R,5,1,43,1432,0,4,396.70000000298023,214,L
2023-04-14T23:19:27Z,qt76109e,serial-reaction-time,1,P,5,1,44,1432,0,4,487.3999999985099,144,H
2023-04-14T23:19:27Z,qt76109e,serial-reaction-time,NA,R,5,1,45,1432,0,3,339.70000000298023,443,H
2023-04-14T23:19:28Z,qt76109e,serial-reaction-time,1,R,5,0,45,1432,0,3,625.2999999970198,443,H
2023-04-14T23:19:29Z,qt76109e,serial-reaction-time,1,P,5,1,46,1432,0,3,687.5,433,H
2023-04-14T23:19:29Z,qt76109e,serial-reaction-time,1,R,5,1,47,1432,0,4,425.6000000014901,334,L
2023-04-14T23:19:30Z,qt76109e,serial-reaction-time,1,P,5,1,48,1432,0,2,431.8999999985099,342,H
2023-04-14T23:19:30Z,qt76109e,serial-reaction-time,1,R,5,1,49,1432,0,2,371.70000000298023,422,L
2023-04-14T23:19:31Z,qt76109e,serial-reaction-time,NA,P,5,1,50,1432,0,1,448.5,221,H
2023-04-14T23:19:31Z,qt76109e,serial-reaction-time,1,P,5,0,50,1432,0,1,538.7000000029802,221,H
2023-04-14T23:19:31Z,qt76109e,serial-reaction-time,1,R,5,1,51,1432,0,1,299.09999999403954,211,H
2023-04-14T23:19:32Z,qt76109e,serial-reaction-time,1,P,5,1,52,1432,0,4,509.70000000298023,114,H
2023-04-14T23:19:33Z,qt76109e,serial-reaction-time,1,R,5,1,53,1432,0,2,916.3000000044703,142,L
2023-04-14T23:19:34Z,qt76109e,serial-reaction-time,1,P,5,1,54,1432,0,3,949.7000000029802,423,H
2023-04-14T23:19:35Z,qt76109e,serial-reaction-time,1,R,5,1,55,1432,0,1,925.89999999851,231,H
2023-04-14T23:19:36Z,qt76109e,serial-reaction-time,NA,P,5,1,56,1432,0,2,898.1000000014901,312,H
2023-04-14T23:19:36Z,qt76109e,serial-reaction-time,1,P,5,0,56,1432,0,2,899,312,H
2023-04-14T23:19:37Z,qt76109e,serial-reaction-time,1,R,5,1,57,1432,0,3,463.6000000014901,123,L
2023-04-14T23:19:38Z,qt76109e,serial-reaction-time,1,P,5,1,58,1432,0,1,610.1000000014901,231,H
2023-04-14T23:19:38Z,qt76109e,serial-reaction-time,1,R,5,1,59,1432,0,4,657.7999999970198,314,L
2023-04-14T23:19:39Z,qt76109e,serial-reaction-time,1,P,5,1,60,1432,0,4,374.90000000596046,144,H
2023-04-14T23:19:39Z,qt76109e,serial-reaction-time,1,R,5,1,61,1432,0,4,403.1000000014901,444,R
2023-04-14T23:19:40Z,qt76109e,serial-reaction-time,NA,P,5,1,62,1432,0,3,384.1000000014901,443,H
2023-04-14T23:19:40Z,qt76109e,serial-reaction-time,1,P,5,0,62,1432,0,3,641.1000000014901,443,H
2023-04-14T23:19:42Z,qt76109e,serial-reaction-time,1,R,5,1,63,1432,0,1,1259,431,L
2023-04-14T23:19:42Z,qt76109e,serial-reaction-time,NA,P,5,1,64,1432,0,2,429.1000000014901,312,H
2023-04-14T23:19:42Z,qt76109e,serial-reaction-time,1,P,5,0,64,1432,0,2,506.79999999701977,312,H
2023-04-14T23:19:43Z,qt76109e,serial-reaction-time,NA,R,5,1,65,1432,0,1,343.20000000298023,121,T
2023-04-14T23:19:43Z,qt76109e,serial-reaction-time,1,R,5,0,65,1432,0,1,843.2000000029802,121,T
2023-04-14T23:19:44Z,qt76109e,serial-reaction-time,1,P,5,1,66,1432,0,1,339,211,H
2023-04-14T23:19:44Z,qt76109e,serial-reaction-time,1,R,5,1,67,1432,0,1,404.5,111,R
2023-04-14T23:19:45Z,qt76109e,serial-reaction-time,1,P,5,1,68,1432,0,4,524.5999999940395,114,H
2023-04-14T23:19:45Z,qt76109e,serial-reaction-time,NA,R,5,1,69,1432,0,3,418.20000000298023,143,L
2023-04-14T23:19:46Z,qt76109e,serial-reaction-time,1,R,5,0,69,1432,0,3,502.5,143,L
2023-04-14T23:19:46Z,qt76109e,serial-reaction-time,1,P,5,1,70,1432,0,3,290.29999999701977,433,H
2023-04-14T23:19:46Z,qt76109e,serial-reaction-time,1,R,5,1,71,1432,0,2,387.80000000447035,332,H
2023-04-14T23:19:47Z,qt76109e,serial-reaction-time,1,P,5,1,72,1432,0,2,443.19999999552965,322,H
2023-04-14T23:19:48Z,qt76109e,serial-reaction-time,1,R,5,1,73,1432,0,1,498.1000000014901,221,H
2023-04-14T23:19:48Z,qt76109e,serial-reaction-time,1,P,5,1,74,1432,0,1,302.70000000298023,211,H
2023-04-14T23:19:49Z,qt76109e,serial-reaction-time,1,R,5,1,75,1432,0,3,452.8999999985099,113,L
2023-04-14T23:19:49Z,qt76109e,serial-reaction-time,1,P,5,1,76,1432,0,4,446.8999999985099,134,H
2023-04-14T23:19:50Z,qt76109e,serial-reaction-time,1,R,5,1,77,1432,0,4,313.20000000298023,344,L
2023-04-14T23:19:50Z,qt76109e,serial-reaction-time,1,P,5,1,78,1432,0,3,431.69999999552965,443,H
2023-04-14T23:19:51Z,qt76109e,serial-reaction-time,1,R,5,1,79,1432,0,4,400,434,T
2023-04-14T23:19:51Z,qt76109e,serial-reaction-time,1,P,5,1,80,1432,0,2,463.3999999985099,342,H
2023-04-14T23:19:56Z,qt76109e,html-keyboard-response,NA,NA,NA,NA,NA,NA,NA,NA,NA,NA,NA
2023-04-14T23:19:59Z,qt76109e,html-keyboard-response,NA,NA,NA,NA,NA,NA,NA,NA,NA,NA,NA
2023-04-14T23:20:00Z,qt76109e,fullscreen,NA,NA,NA,NA,NA,NA,NA,NA,NA,NA,NA
2023-04-15T12:17:11Z,8op4movi,fullscreen,NA,NA,NA,NA,NA,NA,NA,NA,NA,NA,NA
2023-04-15T12:17:16Z,8op4movi,html-keyboard-response,NA,NA,NA,NA,NA,NA,NA,NA,NA,NA,NA
2023-04-15T12:17:18Z,8op4movi,serial-reaction-time,1,R,1,1,1,4312,0,2,811.5999999996275,2,X
2023-04-15T12:17:18Z,8op4movi,serial-reaction-time,NA,P,1,1,2,4312,0,4,232.90000000037253,24,X
2023-04-15T12:17:18Z,8op4movi,serial-reaction-time,1,P,1,0,2,4312,0,4,558.7000000001863,24,X
2023-04-15T12:17:19Z,8op4movi,serial-reaction-time,1,R,1,1,3,4312,0,4,271.40000000037253,244,H
2023-04-15T12:17:19Z,8op4movi,serial-reaction-time,1,P,1,1,4,4312,0,3,378.20000000018626,443,H
2023-04-15T12:17:20Z,8op4movi,serial-reaction-time,1,R,1,1,5,4312,0,3,327.8999999994412,433,H
2023-04-15T12:17:20Z,8op4movi,serial-reaction-time,1,P,1,1,6,4312,0,1,419.70000000018626,331,H
2023-04-15T12:17:21Z,8op4movi,serial-reaction-time,1,R,1,1,7,4312,0,2,486.6000000005588,312,L
2023-04-15T12:17:21Z,8op4movi,serial-reaction-time,1,P,1,1,8,4312,0,2,302.40000000037253,122,H
2023-04-15T12:17:22Z,8op4movi,serial-reaction-time,1,R,1,1,9,4312,0,1,381.30000000074506,221,L
2023-04-15T12:17:23Z,8op4movi,serial-reaction-time,1,P,1,1,10,4312,0,4,440.29999999981374,214,H
2023-04-15T12:17:23Z,8op4movi,serial-reaction-time,1,R,1,1,11,4312,0,4,261.70000000018626,144,L
2023-04-15T12:17:23Z,8op4movi,serial-reaction-time,1,P,1,1,12,4312,0,3,384.70000000018626,443,H
2023-04-15T12:17:24Z,8op4movi,serial-reaction-time,1,R,1,1,13,4312,0,4,359.30000000074506,434,T
2023-04-15T12:17:25Z,8op4movi,serial-reaction-time,1,P,1,1,14,4312,0,1,500.4000000003726,341,H
2023-04-15T12:17:25Z,8op4movi,serial-reaction-time,1,R,1,1,15,4312,0,3,423.79999999981374,413,H
2023-04-15T12:17:26Z,8op4movi,serial-reaction-time,1,P,1,1,16,4312,0,2,544,132,H
2023-04-15T12:17:26Z,8op4movi,serial-reaction-time,1,R,1,1,17,4312,0,1,430.9000000003726,321,H
2023-04-15T12:17:27Z,8op4movi,serial-reaction-time,1,P,1,1,18,4312,0,4,554.7999999998137,214,H
2023-04-15T12:17:28Z,8op4movi,serial-reaction-time,1,R,1,1,19,4312,0,1,446.5,141,T
2023-04-15T12:17:28Z,8op4movi,serial-reaction-time,1,P,1,1,20,4312,0,3,543,413,H
2023-04-15T12:17:29Z,8op4movi,serial-reaction-time,1,R,1,1,21,4312,0,3,345.3999999994412,133,L
2023-04-15T12:17:29Z,8op4movi,serial-reaction-time,1,P,1,1,22,4312,0,1,370.4000000003726,331,H
2023-04-15T12:17:30Z,8op4movi,serial-reaction-time,1,R,1,1,23,4312,0,3,361.30000000074506,313,T
2023-04-15T12:17:30Z,8op4movi,serial-reaction-time,1,P,1,1,24,4312,0,2,510,132,H
2023-04-15T12:17:31Z,8op4movi,serial-reaction-time,1,R,1,1,25,4312,0,2,526.7000000001863,322,L
2023-04-15T12:17:32Z,8op4movi,serial-reaction-time,1,P,1,1,26,4312,0,4,362.8999999994412,224,H
2023-04-15T12:17:32Z,8op4movi,serial-reaction-time,1,R,1,1,27,4312,0,2,406.80000000074506,242,T
2023-04-15T12:17:33Z,8op4movi,serial-reaction-time,NA,P,1,1,28,4312,0,3,338.20000000018626,423,H
2023-04-15T12:17:33Z,8op4movi,serial-reaction-time,1,P,1,0,28,4312,0,3,764.2999999998137,423,H
2023-04-15T12:17:34Z,8op4movi,serial-reaction-time,NA,R,1,1,29,4312,0,2,525.1999999992549,232,T
2023-04-15T12:17:34Z,8op4movi,serial-reaction-time,1,R,1,0,29,4312,0,2,1124.3999999994412,232,T
2023-04-15T12:17:35Z,8op4movi,serial-reaction-time,1,P,1,1,30,4312,0,1,508.30000000074506,321,H
2023-04-15T12:17:35Z,8op4movi,serial-reaction-time,1,R,1,1,31,4312,0,3,504.9000000003726,213,L
2023-04-15T12:17:36Z,8op4movi,serial-reaction-time,1,P,1,1,32,4312,0,2,499.79999999981374,132,H
2023-04-15T12:17:37Z,8op4movi,serial-reaction-time,1,R,1,1,33,4312,0,3,395.9000000003726,323,T
2023-04-15T12:17:37Z,8op4movi,serial-reaction-time,1,P,1,1,34,4312,0,4,392.9000000003726,234,H
2023-04-15T12:17:38Z,8op4movi,serial-reaction-time,1,R,1,1,35,4312,0,3,448.79999999981374,343,T
2023-04-15T12:17:38Z,8op4movi,serial-reaction-time,1,P,1,1,36,4312,0,3,383.8999999994412,433,H
2023-04-15T12:17:39Z,8op4movi,serial-reaction-time,1,R,1,1,37,4312,0,1,515.2999999998137,331,H
2023-04-15T12:17:39Z,8op4movi,serial-reaction-time,1,P,1,1,38,4312,0,1,465.9000000003726,311,H
2023-04-15T12:17:40Z,8op4movi,serial-reaction-time,1,R,1,1,39,4312,0,4,413.29999999981374,114,L
2023-04-15T12:17:41Z,8op4movi,serial-reaction-time,1,P,1,1,40,4312,0,2,457.0999999996274,142,H
2023-04-15T12:17:41Z,8op4movi,serial-reaction-time,1,R,1,1,41,4312,0,4,412.5999999996274,424,T
2023-04-15T12:17:42Z,8op4movi,serial-reaction-time,1,P,1,1,42,4312,0,4,344.09999999962747,244,H
2023-04-15T12:17:42Z,8op4movi,serial-reaction-time,1,R,1,1,43,4312,0,4,369.79999999981374,444,R
2023-04-15T12:17:43Z,8op4movi,serial-reaction-time,1,P,1,1,44,4312,0,3,672,443,H
2023-04-15T12:17:43Z,8op4movi,serial-reaction-time,1,R,1,1,45,4312,0,3,345.70000000018626,433,H
2023-04-15T12:17:44Z,8op4movi,serial-reaction-time,1,P,1,1,46,4312,0,1,393.1000000005588,331,H
2023-04-15T12:17:44Z,8op4movi,serial-reaction-time,1,R,1,1,47,4312,0,3,376.19999999925494,313,T
2023-04-15T12:17:45Z,8op4movi,serial-reaction-time,1,P,1,1,48,4312,0,2,486.29999999981374,132,H
2023-04-15T12:17:46Z,8op4movi,serial-reaction-time,1,R,1,1,49,4312,0,3,526.6000000005588,323,T
2023-04-15T12:17:46Z,8op4movi,serial-reaction-time,1,P,1,1,50,4312,0,4,371,234,H
2023-04-15T12:17:47Z,8op4movi,serial-reaction-time,1,R,1,1,51,4312,0,2,588.6000000005588,342,L
2023-04-15T12:17:47Z,8op4movi,serial-reaction-time,1,P,1,1,52,4312,0,3,391.9000000003726,423,H
2023-04-15T12:17:48Z,8op4movi,serial-reaction-time,NA,R,1,1,53,4312,0,2,399.9000000003726,232,T
2023-04-15T12:17:48Z,8op4movi,serial-reaction-time,1,R,1,0,53,4312,0,2,852.5000000009313,232,T
2023-04-15T12:17:49Z,8op4movi,serial-reaction-time,1,P,1,1,54,4312,0,1,363.80000000074506,321,H
2023-04-15T12:17:49Z,8op4movi,serial-reaction-time,1,R,1,1,55,4312,0,4,460.20000000018626,214,H
2023-04-15T12:17:50Z,8op4movi,serial-reaction-time,1,P,1,1,56,4312,0,2,490,142,H
2023-04-15T12:17:51Z,8op4movi,serial-reaction-time,1,R,1,1,57,4312,0,2,396.5,422,L
2023-04-15T12:17:51Z,8op4movi,serial-reaction-time,1,P,1,1,58,4312,0,4,430.19999999925494,224,H
2023-04-15T12:17:52Z,8op4movi,serial-reaction-time,1,R,1,1,59,4312,0,1,442.4000000003726,241,L
2023-04-15T12:17:52Z,8op4movi,serial-reaction-time,1,P,1,1,60,4312,0,3,423.80000000074506,413,H
2023-04-15T12:17:53Z,8op4movi,serial-reaction-time,1,R,1,1,61,4312,0,2,415.5,132,H
2023-04-15T12:17:53Z,8op4movi,serial-reaction-time,1,P,1,1,62,4312,0,1,423.30000000074506,321,H
2023-04-15T12:17:54Z,8op4movi,serial-reaction-time,1,R,1,1,63,4312,0,1,402.70000000018626,211,L
2023-04-15T12:17:54Z,8op4movi,serial-reaction-time,NA,P,1,1,64,4312,0,2,463,112,H
2023-04-15T12:17:55Z,8op4movi,serial-reaction-time,1,P,1,0,64,4312,0,2,924.5,112,H
2023-04-15T12:17:56Z,8op4movi,serial-reaction-time,1,R,1,1,65,4312,0,4,659.7999999998137,124,L
2023-04-15T12:17:56Z,8op4movi,serial-reaction-time,1,P,1,1,66,4312,0,4,336.5,244,H
2023-04-15T12:17:57Z,8op4movi,serial-reaction-time,NA,R,1,1,67,4312,0,1,473.9000000003726,441,L
2023-04-15T12:17:57Z,8op4movi,serial-reaction-time,1,R,1,0,67,4312,0,1,989.5,441,L
2023-04-15T12:17:58Z,8op4movi,serial-reaction-time,1,P,1,1,68,4312,0,3,504.5999999996274,413,H
2023-04-15T12:17:59Z,8op4movi,serial-reaction-time,1,R,1,1,69,4312,0,2,498.30000000074506,132,H
2023-04-15T12:17:59Z,8op4movi,serial-reaction-time,1,P,1,1,70,4312,0,1,498.8999999994412,321,H
2023-04-15T12:18:00Z,8op4movi,serial-reaction-time,1,R,1,1,71,4312,0,4,438.29999999981374,214,H
2023-04-15T12:18:00Z,8op4movi,serial-reaction-time,1,P,1,1,72,4312,0,2,456.20000000018626,142,H
2023-04-15T12:18:01Z,8op4movi,serial-reaction-time,1,R,1,1,73,4312,0,2,400.6000000005588,422,L
2023-04-15T12:18:01Z,8op4movi,serial-reaction-time,1,P,1,1,74,4312,0,4,527.9000000003725,224,H
2023-04-15T12:18:02Z,8op4movi,serial-reaction-time,1,R,1,1,75,4312,0,4,324.29999999981374,244,H
2023-04-15T12:18:03Z,8op4movi,serial-reaction-time,1,P,1,1,76,4312,0,3,576.4000000003725,443,H
2023-04-15T12:18:03Z,8op4movi,serial-reaction-time,NA,R,1,1,77,4312,0,3,366.0999999996274,433,H
2023-04-15T12:18:04Z,8op4movi,serial-reaction-time,1,R,1,0,77,4312,0,3,851.5999999996275,433,H
2023-04-15T12:18:04Z,8op4movi,serial-reaction-time,1,P,1,1,78,4312,0,1,504.3999999994412,331,H
2023-04-15T12:18:05Z,8op4movi,serial-reaction-time,1,R,1,1,79,4312,0,4,506.70000000018626,314,L
2023-04-15T12:18:05Z,8op4movi,serial-reaction-time,1,P,1,1,80,4312,0,2,509.0999999996274,142,H
2023-04-15T12:18:11Z,8op4movi,html-keyboard-response,NA,NA,NA,NA,NA,NA,NA,NA,NA,NA,NA
2023-04-15T12:18:13Z,8op4movi,html-keyboard-response,NA,NA,NA,NA,NA,NA,NA,NA,NA,NA,NA
2023-04-15T12:18:15Z,8op4movi,serial-reaction-time,1,R,2,1,1,4312,0,2,588.1000000005588,2,X
2023-04-15T12:18:15Z,8op4movi,serial-reaction-time,1,P,2,1,2,4312,0,4,398.5999999996274,24,X
2023-04-15T12:18:16Z,8op4movi,serial-reaction-time,1,R,2,1,3,4312,0,1,457.5999999996274,241,L
2023-04-15T12:18:16Z,8op4movi,serial-reaction-time,1,P,2,1,4,4312,0,3,406.5,413,H
2023-04-15T12:18:17Z,8op4movi,serial-reaction-time,1,R,2,1,5,4312,0,2,510.5,132,H
2023-04-15T12:18:17Z,8op4movi,serial-reaction-time,1,P,2,1,6,4312,0,1,508.8999999994412,321,H
2023-04-15T12:18:18Z,8op4movi,serial-reaction-time,1,R,2,1,7,4312,0,4,460.0999999996274,214,H
2023-04-15T12:18:19Z,8op4movi,serial-reaction-time,NA,P,2,1,8,4312,0,2,794.4000000003725,142,H
2023-04-15T12:18:19Z,8op4movi,serial-reaction-time,NA,P,2,0,8,4312,0,2,798.4000000003725,142,H
2023-04-15T12:18:19Z,8op4movi,serial-reaction-time,NA,P,2,0,8,4312,0,2,1130.7999999998135,142,H
2023-04-15T12:18:19Z,8op4movi,serial-reaction-time,1,P,2,0,8,4312,0,2,1136.999999999069,142,H
2023-04-15T12:18:20Z,8op4movi,serial-reaction-time,NA,R,2,1,9,4312,0,3,642.2999999998137,423,H
2023-04-15T12:18:20Z,8op4movi,serial-reaction-time,NA,R,2,0,9,4312,0,3,642.7000000001863,423,H
2023-04-15T12:18:20Z,8op4movi,serial-reaction-time,1,R,2,0,9,4312,0,3,642.9000000003725,423,H
2023-04-15T12:18:21Z,8op4movi,serial-reaction-time,NA,P,2,1,10,4312,0,4,455.6000000005588,234,H
2023-04-15T12:18:21Z,8op4movi,serial-reaction-time,NA,P,2,0,10,4312,0,4,459.9000000003726,234,H
2023-04-15T12:18:21Z,8op4movi,serial-reaction-time,1,P,2,0,10,4312,0,4,460.9000000003726,234,H
2023-04-15T12:18:21Z,8op4movi,serial-reaction-time,NA,R,2,1,11,4312,0,1,412.20000000018626,341,H
2023-04-15T12:18:21Z,8op4movi,serial-reaction-time,NA,R,2,0,11,4312,0,1,415.5,341,H
2023-04-15T12:18:21Z,8op4movi,serial-reaction-time,NA,R,2,0,11,4312,0,1,415.70000000018626,341,H
2023-04-15T12:18:21Z,8op4movi,serial-reaction-time,1,R,2,0,11,4312,0,1,416.6000000005588,341,H
2023-04-15T12:18:22Z,8op4movi,serial-reaction-time,NA,P,2,1,12,4312,0,3,276.5,413,H
2023-04-15T12:18:22Z,8op4movi,serial-reaction-time,1,P,2,0,12,4312,0,3,288.90000000037253,413,H
2023-04-15T12:18:22Z,8op4movi,serial-reaction-time,NA,R,2,1,13,4312,0,4,189.09999999962747,134,L
2023-04-15T12:18:22Z,8op4movi,serial-reaction-time,NA,R,2,0,13,4312,0,4,213.3999999994412,134,L
2023-04-15T12:18:22Z,8op4movi,serial-reaction-time,1,R,2,0,13,4312,0,4,213.49999999906868,134,L
2023-04-15T12:18:22Z,8op4movi,serial-reaction-time,NA,P,2,1,14,4312,0,1,212.30000000074503,341,H
2023-04-15T12:18:22Z,8op4movi,serial-reaction-time,1,P,2,0,14,4312,0,1,236.40000000037253,341,H
2023-04-15T12:18:23Z,8op4movi,serial-reaction-time,NA,R,2,1,15,4312,0,1,215.70000000018624,411,L
2023-04-15T12:18:23Z,8op4movi,serial-reaction-time,1,R,2,0,15,4312,0,1,215.90000000037253,411,L
2023-04-15T12:18:23Z,8op4movi,serial-reaction-time,1,P,2,1,16,4312,0,2,240.1000000005588,112,H
2023-04-15T12:18:23Z,8op4movi,serial-reaction-time,NA,R,2,1,17,4312,0,3,249.30000000074503,123,L
2023-04-15T12:18:23Z,8op4movi,serial-reaction-time,NA,R,2,0,17,4312,0,3,249.60000000149012,123,L
2023-04-15T12:18:23Z,8op4movi,serial-reaction-time,1,R,2,0,17,4312,0,3,249.8000000016764,123,L
2023-04-15T12:18:24Z,8op4movi,serial-reaction-time,NA,P,2,1,18,4312,0,4,196.1000000005588,234,H
2023-04-15T12:18:24Z,8op4movi,serial-reaction-time,NA,P,2,0,18,4312,0,4,200.30000000074503,234,H
2023-04-15T12:18:24Z,8op4movi,serial-reaction-time,1,P,2,0,18,4312,0,4,201.40000000037253,234,H
2023-04-15T12:18:24Z,8op4movi,serial-reaction-time,NA,R,2,1,19,4312,0,1,184.79999999981376,341,H
2023-04-15T12:18:24Z,8op4movi,serial-reaction-time,1,R,2,0,19,4312,0,1,198.79999999981376,341,H
2023-04-15T12:18:24Z,8op4movi,serial-reaction-time,NA,P,2,1,20,4312,0,3,200,413,H
2023-04-15T12:18:24Z,8op4movi,serial-reaction-time,1,P,2,0,20,4312,0,3,218.30000000074503,413,H
2023-04-15T12:18:25Z,8op4movi,serial-reaction-time,NA,R,2,1,21,4312,0,4,193.3999999994412,134,L
2023-04-15T12:18:25Z,8op4movi,serial-reaction-time,1,R,2,0,21,4312,0,4,199.09999999962747,134,L
2023-04-15T12:18:25Z,8op4movi,serial-reaction-time,NA,P,2,1,22,4312,0,1,169.5,341,H
2023-04-15T12:18:25Z,8op4movi,serial-reaction-time,NA,P,2,0,22,4312,0,1,171.5,341,H
2023-04-15T12:18:25Z,8op4movi,serial-reaction-time,NA,P,2,0,22,4312,0,1,172,341,H
2023-04-15T12:18:25Z,8op4movi,serial-reaction-time,1,P,2,0,22,4312,0,1,189.40000000037253,341,H
2023-04-15T12:18:25Z,8op4movi,serial-reaction-time,NA,R,2,1,23,4312,0,3,120,413,H
2023-04-15T12:18:25Z,8op4movi,serial-reaction-time,1,R,2,0,23,4312,0,3,128.20000000018626,413,H
2023-04-15T12:18:26Z,8op4movi,serial-reaction-time,1,P,2,1,24,4312,0,2,142.5,132,H
2023-04-15T12:18:26Z,8op4movi,serial-reaction-time,NA,R,2,1,25,4312,0,4,193.5,324,L
2023-04-15T12:18:26Z,8op4movi,serial-reaction-time,NA,R,2,0,25,4312,0,4,196.6000000005588,324,L
2023-04-15T12:18:26Z,8op4movi,serial-reaction-time,1,R,2,0,25,4312,0,4,197.80000000074503,324,L
2023-04-15T12:18:26Z,8op4movi,serial-reaction-time,NA,P,2,1,26,4312,0,4,160.79999999981374,244,H
2023-04-15T12:18:26Z,8op4movi,serial-reaction-time,NA,P,2,0,26,4312,0,4,164.5,244,H
2023-04-15T12:18:26Z,8op4movi,serial-reaction-time,NA,P,2,0,26,4312,0,4,168.70000000018626,244,H
2023-04-15T12:18:26Z,8op4movi,serial-reaction-time,1,P,2,0,26,4312,0,4,169.80000000074506,244,H
2023-04-15T12:18:27Z,8op4movi,serial-reaction-time,NA,R,2,1,27,4312,0,3,158.29999999981374,443,H
2023-04-15T12:18:27Z,8op4movi,serial-reaction-time,1,R,2,0,27,4312,0,3,160.1000000005588,443,H
2023-04-15T12:18:27Z,8op4movi,serial-reaction-time,NA,P,2,1,28,4312,0,3,120,433,H
2023-04-15T12:18:27Z,8op4movi,serial-reaction-time,NA,P,2,0,28,4312,0,3,124.3999999994412,433,H
2023-04-15T12:18:27Z,8op4movi,serial-reaction-time,NA,P,2,0,28,4312,0,3,125.2999999988824,433,H
2023-04-15T12:18:27Z,8op4movi,serial-reaction-time,1,P,2,0,28,4312,0,3,126.39999999850988,433,H
2023-04-15T12:18:27Z,8op4movi,serial-reaction-time,NA,R,2,1,29,4312,0,4,73.59999999962747,334,L
2023-04-15T12:18:27Z,8op4movi,serial-reaction-time,NA,R,2,0,29,4312,0,4,79,334,L
2023-04-15T12:18:27Z,8op4movi,serial-reaction-time,NA,R,2,0,29,4312,0,4,80.79999999981374,334,L
2023-04-15T12:18:27Z,8op4movi,serial-reaction-time,1,R,2,0,29,4312,0,4,81.79999999981374,334,L
2023-04-15T12:18:27Z,8op4movi,serial-reaction-time,1,P,2,1,30,4312,0,1,35.90000000037253,341,H
2023-04-15T12:18:27Z,8op4movi,serial-reaction-time,NA,R,2,1,31,4312,0,2,68.90000000037253,412,L
2023-04-15T12:18:27Z,8op4movi,serial-reaction-time,NA,R,2,0,31,4312,0,2,72.5,412,L
2023-04-15T12:18:27Z,8op4movi,serial-reaction-time,NA,R,2,0,31,4312,0,2,72.79999999981374,412,L
2023-04-15T12:18:28Z,8op4movi,serial-reaction-time,NA,R,2,0,31,4312,0,2,211.70000000018624,412,L
2023-04-15T12:18:28Z,8op4movi,serial-reaction-time,NA,R,2,0,31,4312,0,2,228.40000000037253,412,L
2023-04-15T12:18:28Z,8op4movi,serial-reaction-time,NA,R,2,0,31,4312,0,2,228.70000000018624,412,L
2023-04-15T12:18:28Z,8op4movi,serial-reaction-time,NA,R,2,0,31,4312,0,2,395,412,L
2023-04-15T12:18:28Z,8op4movi,serial-reaction-time,1,R,2,0,31,4312,0,2,401.6000000005588,412,L
2023-04-15T12:18:28Z,8op4movi,serial-reaction-time,NA,P,2,1,32,4312,0,2,41.09999999962747,122,H
2023-04-15T12:18:28Z,8op4movi,serial-reaction-time,NA,P,2,0,32,4312,0,2,41.19999999925494,122,H
2023-04-15T12:18:28Z,8op4movi,serial-reaction-time,1,P,2,0,32,4312,0,2,41.299999999813735,122,H
2023-04-15T12:18:28Z,8op4movi,serial-reaction-time,NA,R,2,1,33,4312,0,3,53.90000000037253,223,L
2023-04-15T12:18:28Z,8op4movi,serial-reaction-time,NA,R,2,0,33,4312,0,3,54.100000000558794,223,L
2023-04-15T12:18:28Z,8op4movi,serial-reaction-time,NA,R,2,0,33,4312,0,3,54.299999999813735,223,L
2023-04-15T12:18:28Z,8op4movi,serial-reaction-time,1,R,2,0,33,4312,0,3,55.59999999962747,223,L
2023-04-15T12:18:28Z,8op4movi,serial-reaction-time,NA,P,2,1,34,4312,0,4,41.700000000186265,234,H
2023-04-15T12:18:28Z,8op4movi,serial-reaction-time,1,P,2,0,34,4312,0,4,45.40000000037253,234,H
2023-04-15T12:18:29Z,8op4movi,serial-reaction-time,NA,R,2,1,35,4312,0,1,59,341,H
2023-04-15T12:18:29Z,8op4movi,serial-reaction-time,1,R,2,0,35,4312,0,1,59.200000000186265,341,H
2023-04-15T12:18:29Z,8op4movi,serial-reaction-time,NA,P,2,1,36,4312,0,3,44.799999999813735,413,H
2023-04-15T12:18:29Z,8op4movi,serial-reaction-time,NA,P,2,0,36,4312,0,3,46.799999999813735,413,H
2023-04-15T12:18:29Z,8op4movi,serial-reaction-time,1,P,2,0,36,4312,0,3,47.799999999813735,413,H
2023-04-15T12:18:29Z,8op4movi,serial-reaction-time,NA,R,2,1,37,4312,0,1,32.09999999962747,131,T
2023-04-15T12:18:29Z,8op4movi,serial-reaction-time,NA,R,2,0,37,4312,0,1,35.799999999813735,131,T
2023-04-15T12:18:29Z,8op4movi,serial-reaction-time,NA,R,2,0,37,4312,0,1,36,131,T
2023-04-15T12:18:29Z,8op4movi,serial-reaction-time,1,R,2,0,37,4312,0,1,36.200000000186265,131,T
2023-04-15T12:18:29Z,8op4movi,serial-reaction-time,NA,P,2,1,38,4312,0,1,29.299999999813735,311,H
2023-04-15T12:18:29Z,8op4movi,serial-reaction-time,1,P,2,0,38,4312,0,1,29.399999999441206,311,H
2023-04-15T12:18:29Z,8op4movi,serial-reaction-time,NA,R,2,1,39,4312,0,3,46,113,L
2023-04-15T12:18:29Z,8op4movi,serial-reaction-time,NA,R,2,0,39,4312,0,3,46.09999999962747,113,L
2023-04-15T12:18:29Z,8op4movi,serial-reaction-time,NA,R,2,0,39,4312,0,3,47.09999999962747,113,L
2023-04-15T12:18:29Z,8op4movi,serial-reaction-time,1,R,2,0,39,4312,0,3,47.200000000186265,113,L
2023-04-15T12:18:29Z,8op4movi,serial-reaction-time,1,P,2,1,40,4312,0,2,30.09999999962747,132,H
2023-04-15T12:18:30Z,8op4movi,serial-reaction-time,1,R,2,1,41,4312,0,4,50.100000000558794,324,L
2023-04-15T12:18:30Z,8op4movi,serial-reaction-time,1,P,2,1,42,4312,0,4,51.39999999944121,244,H
2023-04-15T12:18:30Z,8op4movi,serial-reaction-time,1,R,2,1,43,4312,0,4,46.100000000558794,444,R
2023-04-15T12:18:30Z,8op4movi,serial-reaction-time,NA,P,2,1,44,4312,0,3,37.200000000186265,443,H
2023-04-15T12:18:30Z,8op4movi,serial-reaction-time,1,P,2,0,44,4312,0,3,44.100000000558794,443,H
2023-04-15T12:18:30Z,8op4movi,serial-reaction-time,NA,R,2,1,45,4312,0,3,29.09999999962747,433,H
2023-04-15T12:18:30Z,8op4movi,serial-reaction-time,1,R,2,0,45,4312,0,3,34.799999999813735,433,H
2023-04-15T12:18:30Z,8op4movi,serial-reaction-time,NA,P,2,1,46,4312,0,1,25.799999999813735,331,H
2023-04-15T12:18:30Z,8op4movi,serial-reaction-time,NA,P,2,0,46,4312,0,1,40.299999999813735,331,H
2023-04-15T12:18:30Z,8op4movi,serial-reaction-time,1,P,2,0,46,4312,0,1,45.700000000186265,331,H
2023-04-15T12:18:31Z,8op4movi,serial-reaction-time,NA,R,2,1,47,4312,0,3,1.2999999998137357,313,T
2023-04-15T12:18:31Z,8op4movi,serial-reaction-time,1,R,2,0,47,4312,0,3,10.699999999254942,313,T
2023-04-15T12:18:31Z,8op4movi,serial-reaction-time,NA,P,2,1,48,4312,0,2,49.799999999813735,132,H
2023-04-15T12:18:31Z,8op4movi,serial-reaction-time,NA,P,2,0,48,4312,0,2,59.799999999813735,132,H
2023-04-15T12:18:31Z,8op4movi,serial-reaction-time,1,P,2,0,48,4312,0,2,198.29999999981376,132,H
2023-04-15T12:18:31Z,8op4movi,serial-reaction-time,1,R,2,1,49,4312,0,1,59.200000000186265,321,H
2023-04-15T12:18:31Z,8op4movi,serial-reaction-time,1,P,2,1,50,4312,0,4,58,214,H
2023-04-15T12:18:31Z,8op4movi,serial-reaction-time,NA,R,2,1,51,4312,0,4,73.09999999962747,144,L
2023-04-15T12:18:31Z,8op4movi,serial-reaction-time,NA,R,2,0,51,4312,0,4,91.09999999962749,144,L
2023-04-15T12:18:32Z,8op4movi,serial-reaction-time,NA,R,2,0,51,4312,0,4,256,144,L
2023-04-15T12:18:32Z,8op4movi,serial-reaction-time,1,R,2,0,51,4312,0,4,256.1000000005588,144,L
2023-04-15T12:18:32Z,8op4movi,serial-reaction-time,NA,P,2,1,52,4312,0,3,36.09999999962747,443,H
2023-04-15T12:18:32Z,8op4movi,serial-reaction-time,NA,P,2,0,52,4312,0,3,36.19999999925494,443,H
2023-04-15T12:18:32Z,8op4movi,serial-reaction-time,NA,P,2,0,52,4312,0,3,36.39999999850989,443,H
2023-04-15T12:18:32Z,8op4movi,serial-reaction-time,1,P,2,0,52,4312,0,3,37.79999999795109,443,H
2023-04-15T12:18:32Z,8op4movi,serial-reaction-time,1,R,2,1,53,4312,0,2,34.59999999962747,432,L
2023-04-15T12:18:32Z,8op4movi,serial-reaction-time,NA,P,2,1,54,4312,0,1,42.5,321,H
2023-04-15T12:18:32Z,8op4movi,serial-reaction-time,1,P,2,0,54,4312,0,1,43.299999999813735,321,H
2023-04-15T12:18:32Z,8op4movi,serial-reaction-time,NA,R,2,1,55,4312,0,1,58.09999999962747,211,L
2023-04-15T12:18:32Z,8op4movi,serial-reaction-time,1,R,2,0,55,4312,0,1,58.200000000186265,211,L
2023-04-15T12:18:32Z,8op4movi,serial-reaction-time,NA,P,2,1,56,4312,0,2,33,112,H
2023-04-15T12:18:32Z,8op4movi,serial-reaction-time,NA,P,2,0,56,4312,0,2,33.200000000186265,112,H
2023-04-15T12:18:32Z,8op4movi,serial-reaction-time,1,P,2,0,56,4312,0,2,34.600000000558794,112,H
2023-04-15T12:18:33Z,8op4movi,serial-reaction-time,1,R,2,1,57,4312,0,4,50.40000000037253,124,L
2023-04-15T12:18:33Z,8op4movi,serial-reaction-time,1,P,2,1,58,4312,0,4,47.40000000037253,244,H
2023-04-15T12:18:33Z,8op4movi,serial-reaction-time,NA,R,2,1,59,4312,0,2,46.5,442,L
2023-04-15T12:18:33Z,8op4movi,serial-reaction-time,NA,R,2,0,59,4312,0,2,47.90000000037253,442,L
2023-04-15T12:18:33Z,8op4movi,serial-reaction-time,NA,R,2,0,59,4312,0,2,51.600000000558794,442,L
2023-04-15T12:18:33Z,8op4movi,serial-reaction-time,1,R,2,0,59,4312,0,2,62.90000000037253,442,L
2023-04-15T12:18:33Z,8op4movi,serial-reaction-time,NA,P,2,1,60,4312,0,3,21.899999999441206,423,H
2023-04-15T12:18:33Z,8op4movi,serial-reaction-time,1,P,2,0,60,4312,0,3,25.299999999813735,423,H
2023-04-15T12:18:33Z,8op4movi,serial-reaction-time,NA,R,2,1,61,4312,0,1,46.299999999813735,231,L
2023-04-15T12:18:33Z,8op4movi,serial-reaction-time,NA,R,2,0,61,4312,0,1,51.40000000037253,231,L
2023-04-15T12:18:33Z,8op4movi,serial-reaction-time,NA,R,2,0,61,4312,0,1,61.100000000558794,231,L
2023-04-15T12:18:33Z,8op4movi,serial-reaction-time,1,R,2,0,61,4312,0,1,62,231,L
2023-04-15T12:18:34Z,8op4movi,serial-reaction-time,NA,P,2,1,62,4312,0,1,10.200000000186265,311,H
2023-04-15T12:18:34Z,8op4movi,serial-reaction-time,NA,P,2,0,62,4312,0,1,11.299999999813735,311,H
2023-04-15T12:18:34Z,8op4movi,serial-reaction-time,NA,P,2,0,62,4312,0,1,19.299999999813735,311,H
2023-04-15T12:18:34Z,8op4movi,serial-reaction-time,1,P,2,0,62,4312,0,1,19.499999999068677,311,H
2023-04-15T12:18:34Z,8op4movi,serial-reaction-time,NA,R,2,1,63,4312,0,1,24.90000000037253,111,R
2023-04-15T12:18:34Z,8op4movi,serial-reaction-time,NA,R,2,0,63,4312,0,1,37.200000000186265,111,R
2023-04-15T12:18:34Z,8op4movi,serial-reaction-time,1,R,2,0,63,4312,0,1,37.40000000037253,111,R
2023-04-15T12:18:34Z,8op4movi,serial-reaction-time,NA,P,2,1,64,4312,0,2,16,112,H
2023-04-15T12:18:34Z,8op4movi,serial-reaction-time,NA,P,2,0,64,4312,0,2,24.90000000037253,112,H
2023-04-15T12:18:34Z,8op4movi,serial-reaction-time,NA,P,2,0,64,4312,0,2,30.800000000745055,112,H
2023-04-15T12:18:34Z,8op4movi,serial-reaction-time,1,P,2,0,64,4312,0,2,39.600000000558794,112,H
2023-04-15T12:18:34Z,8op4movi,serial-reaction-time,NA,R,2,1,65,4312,0,4,27.200000000186265,124,L
2023-04-15T12:18:34Z,8op4movi,serial-reaction-time,NA,R,2,0,65,4312,0,4,37.40000000037253,124,L
2023-04-15T12:18:34Z,8op4movi,serial-reaction-time,NA,R,2,0,65,4312,0,4,46.80000000074506,124,L
2023-04-15T12:18:34Z,8op4movi,serial-reaction-time,1,R,2,0,65,4312,0,4,172.80000000074506,124,L
2023-04-15T12:18:34Z,8op4movi,serial-reaction-time,NA,P,2,1,66,4312,0,4,55.299999999813735,244,H
2023-04-15T12:18:34Z,8op4movi,serial-reaction-time,NA,P,2,0,66,4312,0,4,100.8999999994412,244,H
2023-04-15T12:18:34Z,8op4movi,serial-reaction-time,NA,P,2,0,66,4312,0,4,103.20000000018626,244,H
2023-04-15T12:18:35Z,8op4movi,serial-reaction-time,NA,P,2,0,66,4312,0,4,228.79999999981376,244,H
2023-04-15T12:18:35Z,8op4movi,serial-reaction-time,NA,P,2,0,66,4312,0,4,267.9999999990687,244,H
2023-04-15T12:18:35Z,8op4movi,serial-reaction-time,NA,P,2,0,66,4312,0,4,272.7999999988824,244,H
2023-04-15T12:18:35Z,8op4movi,serial-reaction-time,NA,P,2,0,66,4312,0,4,399.8999999994412,244,H
2023-04-15T12:18:35Z,8op4movi,serial-reaction-time,NA,P,2,0,66,4312,0,4,421.29999999981374,244,H
2023-04-15T12:18:35Z,8op4movi,serial-reaction-time,NA,P,2,0,66,4312,0,4,427,244,H
2023-04-15T12:18:35Z,8op4movi,serial-reaction-time,NA,P,2,0,66,4312,0,4,570,244,H
2023-04-15T12:18:35Z,8op4movi,serial-reaction-time,NA,P,2,0,66,4312,0,4,830.3999999994412,244,H
2023-04-15T12:18:35Z,8op4movi,serial-reaction-time,1,P,2,0,66,4312,0,4,830.5999999996275,244,H
2023-04-15T12:18:35Z,8op4movi,serial-reaction-time,NA,R,2,1,67,4312,0,3,101.8999999994412,443,H
2023-04-15T12:18:35Z,8op4movi,serial-reaction-time,1,R,2,0,67,4312,0,3,102.8999999994412,443,H
2023-04-15T12:18:36Z,8op4movi,serial-reaction-time,NA,P,2,1,68,4312,0,3,72,433,H
2023-04-15T12:18:36Z,8op4movi,serial-reaction-time,1,P,2,0,68,4312,0,3,73.90000000037253,433,H
2023-04-15T12:18:36Z,8op4movi,serial-reaction-time,NA,R,2,1,69,4312,0,2,66.69999999925494,332,L
2023-04-15T12:18:36Z,8op4movi,serial-reaction-time,1,R,2,0,69,4312,0,2,66.8999999994412,332,L
2023-04-15T12:18:36Z,8op4movi,serial-reaction-time,NA,P,2,1,70,4312,0,1,62.39999999944121,321,H
2023-04-15T12:18:36Z,8op4movi,serial-reaction-time,NA,P,2,0,70,4312,0,1,62.5,321,H
2023-04-15T12:18:36Z,8op4movi,serial-reaction-time,NA,P,2,0,70,4312,0,1,63.5,321,H
2023-04-15T12:18:36Z,8op4movi,serial-reaction-time,1,P,2,0,70,4312,0,1,63.59999999962747,321,H
2023-04-15T12:18:36Z,8op4movi,serial-reaction-time,NA,R,2,1,71,4312,0,1,43.299999999813735,211,L
2023-04-15T12:18:36Z,8op4movi,serial-reaction-time,1,R,2,0,71,4312,0,1,48.299999999813735,211,L
2023-04-15T12:18:36Z,8op4movi,serial-reaction-time,NA,P,2,1,72,4312,0,2,42.799999999813735,112,H
2023-04-15T12:18:36Z,8op4movi,serial-reaction-time,NA,P,2,0,72,4312,0,2,48.299999999813735,112,H
2023-04-15T12:18:36Z,8op4movi,serial-reaction-time,1,P,2,0,72,4312,0,2,63.100000000558794,112,H
2023-04-15T12:18:37Z,8op4movi,serial-reaction-time,1,R,2,1,73,4312,0,4,44.5,124,L
2023-04-15T12:18:37Z,8op4movi,serial-reaction-time,NA,P,2,1,74,4312,0,4,43.200000000186265,244,H
2023-04-15T12:18:37Z,8op4movi,serial-reaction-time,1,P,2,0,74,4312,0,4,43.50000000093132,244,H
2023-04-15T12:18:37Z,8op4movi,serial-reaction-time,NA,R,2,1,75,4312,0,2,56.700000000186265,442,L
2023-04-15T12:18:37Z,8op4movi,serial-reaction-time,NA,R,2,0,75,4312,0,2,59.799999999813735,442,L
2023-04-15T12:18:37Z,8op4movi,serial-reaction-time,1,R,2,0,75,4312,0,2,65.79999999981374,442,L
2023-04-15T12:18:37Z,8op4movi,serial-reaction-time,NA,P,2,1,76,4312,0,3,36.90000000037253,423,H
2023-04-15T12:18:37Z,8op4movi,serial-reaction-time,1,P,2,0,76,4312,0,3,38.40000000037253,423,H
2023-04-15T12:18:37Z,8op4movi,serial-reaction-time,NA,R,2,1,77,4312,0,1,42.89999999944121,231,L
2023-04-15T12:18:37Z,8op4movi,serial-reaction-time,NA,R,2,0,77,4312,0,1,50.19999999925494,231,L
2023-04-15T12:18:37Z,8op4movi,serial-reaction-time,NA,R,2,0,77,4312,0,1,50.39999999944121,231,L
2023-04-15T12:18:37Z,8op4movi,serial-reaction-time,1,R,2,0,77,4312,0,1,50.59999999962747,231,L
2023-04-15T12:18:37Z,8op4movi,serial-reaction-time,NA,P,2,1,78,4312,0,1,46.700000000186265,311,H
2023-04-15T12:18:37Z,8op4movi,serial-reaction-time,1,P,2,0,78,4312,0,1,47.100000000558794,311,H
2023-04-15T12:18:38Z,8op4movi,serial-reaction-time,NA,R,2,1,79,4312,0,2,58.09999999962747,112,H
2023-04-15T12:18:38Z,8op4movi,serial-reaction-time,1,R,2,0,79,4312,0,2,59.49999999906868,112,H
2023-04-15T12:18:38Z,8op4movi,serial-reaction-time,NA,P,2,1,80,4312,0,2,58.299999999813735,122,H
2023-04-15T12:18:38Z,8op4movi,serial-reaction-time,NA,P,2,0,80,4312,0,2,61.799999999813735,122,H
2023-04-15T12:18:38Z,8op4movi,serial-reaction-time,1,P,2,0,80,4312,0,2,65.49999999906868,122,H
2023-04-15T12:18:43Z,8op4movi,html-keyboard-response,NA,NA,NA,NA,NA,NA,NA,NA,NA,NA,NA
2023-04-15T12:18:55Z,8op4movi,html-keyboard-response,NA,NA,NA,NA,NA,NA,NA,NA,NA,NA,NA
2023-04-15T12:19:03Z,8op4movi,html-keyboard-response,NA,NA,NA,NA,NA,NA,NA,NA,NA,NA,NA
2023-04-15T12:19:05Z,8op4movi,serial-reaction-time,1,R,3,1,1,4312,0,1,633.2999999998137,1,X
2023-04-15T12:19:05Z,8op4movi,serial-reaction-time,1,P,3,1,2,4312,0,4,648.5,14,X
2023-04-15T12:19:07Z,8op4movi,serial-reaction-time,1,R,3,1,3,4312,0,1,1228.0999999996277,141,T
2023-04-15T12:19:07Z,8op4movi,serial-reaction-time,1,P,3,1,4,4312,0,3,482.29999999981374,413,H
2023-04-15T12:19:08Z,8op4movi,serial-reaction-time,1,R,3,1,5,4312,0,1,391.29999999981374,131,T
2023-04-15T12:19:08Z,8op4movi,serial-reaction-time,1,P,3,1,6,4312,0,1,376.5999999996274,311,H
2023-04-15T12:19:09Z,8op4movi,serial-reaction-time,1,R,3,1,7,4312,0,2,616.4000000003725,112,H
2023-04-15T12:19:09Z,8op4movi,serial-reaction-time,1,P,3,1,8,4312,0,2,344.79999999981374,122,H
2023-04-15T12:19:10Z,8op4movi,serial-reaction-time,NA,R,3,1,9,4312,0,3,382.5999999996274,223,L
2023-04-15T12:19:10Z,8op4movi,serial-reaction-time,1,R,3,0,9,4312,0,3,744.7000000001863,223,L
2023-04-15T12:19:11Z,8op4movi,serial-reaction-time,1,P,3,1,10,4312,0,4,418,234,H
2023-04-15T12:19:12Z,8op4movi,serial-reaction-time,1,R,3,1,11,4312,0,3,466.5,343,T
2023-04-15T12:19:12Z,8op4movi,serial-reaction-time,1,P,3,1,12,4312,0,3,366,433,H
2023-04-15T12:19:13Z,8op4movi,serial-reaction-time,1,R,3,1,13,4312,0,4,391.79999999981374,334,L
2023-04-15T12:19:13Z,8op4movi,serial-reaction-time,1,P,3,1,14,4312,0,1,450.79999999981374,341,H
2023-04-15T12:19:14Z,8op4movi,serial-reaction-time,1,R,3,1,15,4312,0,3,368.70000000018626,413,H
2023-04-15T12:19:14Z,8op4movi,serial-reaction-time,1,P,3,1,16,4312,0,2,472.80000000074506,132,H
2023-04-15T12:19:15Z,8op4movi,serial-reaction-time,1,R,3,1,17,4312,0,4,402.70000000018626,324,L
2023-04-15T12:19:15Z,8op4movi,serial-reaction-time,1,P,3,1,18,4312,0,4,345.79999999981374,244,H
2023-04-15T12:19:16Z,8op4movi,serial-reaction-time,1,R,3,1,19,4312,0,3,468.29999999981374,443,H
2023-04-15T12:19:16Z,8op4movi,serial-reaction-time,NA,P,3,1,20,4312,0,3,337.6000000005588,433,H
2023-04-15T12:19:17Z,8op4movi,serial-reaction-time,1,P,3,0,20,4312,0,3,763.8000000007451,433,H
2023-04-15T12:19:17Z,8op4movi,serial-reaction-time,1,R,3,1,21,4312,0,2,526.7000000001863,332,L
2023-04-15T12:19:18Z,8op4movi,serial-reaction-time,1,P,3,1,22,4312,0,1,444.70000000018626,321,H
2023-04-15T12:19:18Z,8op4movi,serial-reaction-time,1,R,3,1,23,4312,0,4,423.20000000018626,214,H
2023-04-15T12:19:19Z,8op4movi,serial-reaction-time,1,P,3,1,24,4312,0,2,504.3999999994412,142,H
2023-04-15T12:19:19Z,8op4movi,serial-reaction-time,1,R,3,1,25,4312,0,2,306.70000000018626,422,L
2023-04-15T12:19:20Z,8op4movi,serial-reaction-time,1,P,3,1,26,4312,0,4,369.5999999996274,224,H
2023-04-15T12:19:21Z,8op4movi,serial-reaction-time,1,R,3,1,27,4312,0,3,563.2999999998137,243,L
2023-04-15T12:19:21Z,8op4movi,serial-reaction-time,1,P,3,1,28,4312,0,3,332.1000000005588,433,H
2023-04-15T12:19:22Z,8op4movi,serial-reaction-time,1,R,3,1,29,4312,0,4,402.6000000005588,334,L
2023-04-15T12:19:22Z,8op4movi,serial-reaction-time,1,P,3,1,30,4312,0,1,445.3999999994412,341,H
2023-04-15T12:19:23Z,8op4movi,serial-reaction-time,1,R,3,1,31,4312,0,2,539,412,L
2023-04-15T12:19:23Z,8op4movi,serial-reaction-time,1,P,3,1,32,4312,0,2,326.70000000018626,122,H
2023-04-15T12:19:24Z,8op4movi,serial-reaction-time,NA,R,3,1,33,4312,0,1,393.6000000005588,221,L
2023-04-15T12:19:24Z,8op4movi,serial-reaction-time,1,R,3,0,33,4312,0,1,792.8000000007451,221,L
2023-04-15T12:19:25Z,8op4movi,serial-reaction-time,1,P,3,1,34,4312,0,4,580.5999999996275,214,H
2023-04-15T12:19:26Z,8op4movi,serial-reaction-time,1,R,3,1,35,4312,0,1,456.4000000003726,141,T
2023-04-15T12:19:26Z,8op4movi,serial-reaction-time,1,P,3,1,36,4312,0,3,436,413,H
2023-04-15T12:19:27Z,8op4movi,serial-reaction-time,1,R,3,1,37,4312,0,2,426.9000000003726,132,H
2023-04-15T12:19:27Z,8op4movi,serial-reaction-time,1,P,3,1,38,4312,0,1,424.5999999996274,321,H
2023-04-15T12:19:28Z,8op4movi,serial-reaction-time,1,R,3,1,39,4312,0,2,529.2999999998137,212,T
2023-04-15T12:19:28Z,8op4movi,serial-reaction-time,1,P,3,1,40,4312,0,2,392.5,122,H
2023-04-15T12:19:29Z,8op4movi,serial-reaction-time,1,R,3,1,41,4312,0,1,489.5,221,L
2023-04-15T12:19:30Z,8op4movi,serial-reaction-time,1,P,3,1,42,4312,0,4,399.70000000018626,214,H
2023-04-15T12:19:30Z,8op4movi,serial-reaction-time,1,R,3,1,43,4312,0,2,428,142,H
2023-04-15T12:19:31Z,8op4movi,serial-reaction-time,1,P,3,1,44,4312,0,3,403,423,H
2023-04-15T12:19:31Z,8op4movi,serial-reaction-time,1,R,3,1,45,4312,0,4,464.79999999981374,234,H
2023-04-15T12:19:32Z,8op4movi,serial-reaction-time,1,P,3,1,46,4312,0,1,495,341,H
2023-04-15T12:19:32Z,8op4movi,serial-reaction-time,1,R,3,1,47,4312,0,1,411.29999999981374,411,L
2023-04-15T12:19:33Z,8op4movi,serial-reaction-time,1,P,3,1,48,4312,0,2,483.9000000003726,112,H
2023-04-15T12:19:34Z,8op4movi,serial-reaction-time,1,R,3,1,49,4312,0,4,428.80000000074506,124,L
2023-04-15T12:19:34Z,8op4movi,serial-reaction-time,1,P,3,1,50,4312,0,4,376,244,H
2023-04-15T12:19:35Z,8op4movi,serial-reaction-time,1,R,3,1,51,4312,0,3,409.9000000003726,443,H
2023-04-15T12:19:35Z,8op4movi,serial-reaction-time,1,P,3,1,52,4312,0,3,406,433,H
2023-04-15T12:19:36Z,8op4movi,serial-reaction-time,1,R,3,1,53,4312,0,1,427.20000000018626,331,H
2023-04-15T12:19:36Z,8op4movi,serial-reaction-time,1,P,3,1,54,4312,0,1,430.4000000003726,311,H
2023-04-15T12:19:37Z,8op4movi,serial-reaction-time,1,R,3,1,55,4312,0,3,425.29999999981374,113,L
2023-04-15T12:19:37Z,8op4movi,serial-reaction-time,1,P,3,1,56,4312,0,2,410.20000000018626,132,H
2023-04-15T12:19:38Z,8op4movi,serial-reaction-time,1,R,3,1,57,4312,0,1,450.79999999981374,321,H
2023-04-15T12:19:38Z,8op4movi,serial-reaction-time,NA,P,3,1,58,4312,0,4,435,214,H
2023-04-15T12:19:39Z,8op4movi,serial-reaction-time,1,P,3,0,58,4312,0,4,674.2000000001863,214,H
2023-04-15T12:19:39Z,8op4movi,serial-reaction-time,1,R,3,1,59,4312,0,1,461.20000000018626,141,T
2023-04-15T12:19:40Z,8op4movi,serial-reaction-time,1,P,3,1,60,4312,0,3,458.3999999994412,413,H
2023-04-15T12:19:40Z,8op4movi,serial-reaction-time,1,R,3,1,61,4312,0,4,382.8999999994412,134,L
2023-04-15T12:19:41Z,8op4movi,serial-reaction-time,1,P,3,1,62,4312,0,1,434.29999999981374,341,H
2023-04-15T12:19:41Z,8op4movi,serial-reaction-time,1,R,3,1,63,4312,0,3,434.5999999996274,413,H
2023-04-15T12:19:42Z,8op4movi,serial-reaction-time,1,P,3,1,64,4312,0,2,511.70000000018626,132,H
2023-04-15T12:19:43Z,8op4movi,serial-reaction-time,1,R,3,1,65,4312,0,2,438.6000000005588,322,L
2023-04-15T12:19:43Z,8op4movi,serial-reaction-time,NA,P,3,1,66,4312,0,4,387.5999999996274,224,H
2023-04-15T12:19:44Z,8op4movi,serial-reaction-time,1,P,3,0,66,4312,0,4,685.2999999998137,224,H
2023-04-15T12:19:44Z,8op4movi,serial-reaction-time,1,R,3,1,67,4312,0,4,337.59999999962747,244,H
2023-04-15T12:19:45Z,8op4movi,serial-reaction-time,1,P,3,1,68,4312,0,3,461.29999999981374,443,H
2023-04-15T12:19:45Z,8op4movi,serial-reaction-time,1,R,3,1,69,4312,0,2,555.5,432,L
2023-04-15T12:19:46Z,8op4movi,serial-reaction-time,1,P,3,1,70,4312,0,1,368.29999999981374,321,H
2023-04-15T12:19:46Z,8op4movi,serial-reaction-time,1,R,3,1,71,4312,0,4,399,214,H
2023-04-15T12:19:47Z,8op4movi,serial-reaction-time,1,P,3,1,72,4312,0,2,432.0999999996274,142,H
2023-04-15T12:19:47Z,8op4movi,serial-reaction-time,1,R,3,1,73,4312,0,3,417,423,H
2023-04-15T12:19:48Z,8op4movi,serial-reaction-time,1,P,3,1,74,4312,0,4,335.6000000005588,234,H
2023-04-15T12:19:48Z,8op4movi,serial-reaction-time,1,R,3,1,75,4312,0,3,483.19999999925494,343,T
2023-04-15T12:19:49Z,8op4movi,serial-reaction-time,1,P,3,1,76,4312,0,3,393.5999999996274,433,H
2023-04-15T12:19:49Z,8op4movi,serial-reaction-time,1,R,3,1,77,4312,0,2,398.80000000074506,332,L
2023-04-15T12:19:50Z,8op4movi,serial-reaction-time,1,P,3,1,78,4312,0,1,341.29999999981374,321,H
2023-04-15T12:19:50Z,8op4movi,serial-reaction-time,1,R,3,1,79,4312,0,1,365.6000000005588,211,L
2023-04-15T12:19:51Z,8op4movi,serial-reaction-time,NA,P,3,1,80,4312,0,2,423.5999999996274,112,H
2023-04-15T12:19:51Z,8op4movi,serial-reaction-time,1,P,3,0,80,4312,0,2,492.29999999981374,112,H
2023-04-15T12:19:56Z,8op4movi,html-keyboard-response,NA,NA,NA,NA,NA,NA,NA,NA,NA,NA,NA
2023-04-15T12:20:00Z,8op4movi,html-keyboard-response,NA,NA,NA,NA,NA,NA,NA,NA,NA,NA,NA
2023-04-15T12:20:02Z,8op4movi,html-keyboard-response,NA,NA,NA,NA,NA,NA,NA,NA,NA,NA,NA
2023-04-15T12:20:04Z,8op4movi,serial-reaction-time,1,R,4,1,1,4312,0,3,514.8999999994412,3,X
2023-04-15T12:20:04Z,8op4movi,serial-reaction-time,1,P,4,1,2,4312,0,4,383.5999999996274,34,X
2023-04-15T12:20:05Z,8op4movi,serial-reaction-time,1,R,4,1,3,4312,0,1,496.9000000003726,341,H
2023-04-15T12:20:05Z,8op4movi,serial-reaction-time,1,P,4,1,4,4312,0,3,378.9000000003726,413,H
2023-04-15T12:20:06Z,8op4movi,serial-reaction-time,1,R,4,1,5,4312,0,2,564.1999999992549,132,H
2023-04-15T12:20:07Z,8op4movi,serial-reaction-time,1,P,4,1,6,4312,0,1,692.9000000003725,321,H
2023-04-15T12:20:08Z,8op4movi,serial-reaction-time,1,R,4,1,7,4312,0,1,676.2999999998137,211,L
2023-04-15T12:20:08Z,8op4movi,serial-reaction-time,NA,P,4,1,8,4312,0,2,412.79999999981374,112,H
2023-04-15T12:20:09Z,8op4movi,serial-reaction-time,1,P,4,0,8,4312,0,2,766.2000000001863,112,H
2023-04-15T12:20:09Z,8op4movi,serial-reaction-time,1,R,4,1,9,4312,0,2,351,122,H
2023-04-15T12:20:10Z,8op4movi,serial-reaction-time,1,P,4,1,10,4312,0,4,465.3999999994412,224,H
2023-04-15T12:20:10Z,8op4movi,serial-reaction-time,1,R,4,1,11,4312,0,3,555,243,L
2023-04-15T12:20:11Z,8op4movi,serial-reaction-time,1,P,4,1,12,4312,0,3,346.3999999994412,433,H
2023-04-15T12:20:11Z,8op4movi,serial-reaction-time,1,R,4,1,13,4312,0,4,387.3999999994412,334,L
2023-04-15T12:20:12Z,8op4movi,serial-reaction-time,1,P,4,1,14,4312,0,1,391,341,H
2023-04-15T12:20:12Z,8op4movi,serial-reaction-time,1,R,4,1,15,4312,0,3,387.9000000003726,413,H
2023-04-15T12:20:13Z,8op4movi,serial-reaction-time,1,P,4,1,16,4312,0,2,487.4000000003726,132,H
2023-04-15T12:20:14Z,8op4movi,serial-reaction-time,1,R,4,1,17,4312,0,1,451.9000000003726,321,H
2023-04-15T12:20:14Z,8op4movi,serial-reaction-time,1,P,4,1,18,4312,0,4,538,214,H
2023-04-15T12:20:15Z,8op4movi,serial-reaction-time,1,R,4,1,19,4312,0,3,553,143,L
2023-04-15T12:20:15Z,8op4movi,serial-reaction-time,1,P,4,1,20,4312,0,3,393.8999999994412,433,H
2023-04-15T12:20:16Z,8op4movi,serial-reaction-time,1,R,4,1,21,4312,0,4,425.20000000018626,334,L
2023-04-15T12:20:17Z,8op4movi,serial-reaction-time,1,P,4,1,22,4312,0,1,494.9000000003726,341,H
2023-04-15T12:20:17Z,8op4movi,serial-reaction-time,1,R,4,1,23,4312,0,1,315.6000000005588,411,L
2023-04-15T12:20:18Z,8op4movi,serial-reaction-time,1,P,4,1,24,4312,0,2,424.8999999994412,112,H
2023-04-15T12:20:18Z,8op4movi,serial-reaction-time,1,R,4,1,25,4312,0,2,304.90000000037253,122,H
2023-04-15T12:20:19Z,8op4movi,serial-reaction-time,1,P,4,1,26,4312,0,4,427.9000000003726,224,H
2023-04-15T12:20:19Z,8op4movi,serial-reaction-time,1,R,4,1,27,4312,0,2,420.9000000003726,242,T
2023-04-15T12:20:20Z,8op4movi,serial-reaction-time,1,P,4,1,28,4312,0,3,700.6000000005588,423,H
2023-04-15T12:20:20Z,8op4movi,serial-reaction-time,1,R,4,1,29,4312,0,3,382.79999999981374,233,L
2023-04-15T12:20:21Z,8op4movi,serial-reaction-time,1,P,4,1,30,4312,0,1,379.20000000018626,331,H
2023-04-15T12:20:22Z,8op4movi,serial-reaction-time,1,R,4,1,31,4312,0,3,417.4000000003726,313,T
2023-04-15T12:20:22Z,8op4movi,serial-reaction-time,1,P,4,1,32,4312,0,2,613.0999999996275,132,H
2023-04-15T12:20:23Z,8op4movi,serial-reaction-time,1,R,4,1,33,4312,0,2,348.09999999962747,322,L
2023-04-15T12:20:23Z,8op4movi,serial-reaction-time,1,P,4,1,34,4312,0,4,369.20000000018626,224,H
2023-04-15T12:20:24Z,8op4movi,serial-reaction-time,1,R,4,1,35,4312,0,2,434.20000000018626,242,T
2023-04-15T12:20:24Z,8op4movi,serial-reaction-time,1,P,4,1,36,4312,0,3,470.9000000003726,423,H
2023-04-15T12:20:25Z,8op4movi,serial-reaction-time,1,R,4,1,37,4312,0,4,418.4000000003726,234,H
2023-04-15T12:20:25Z,8op4movi,serial-reaction-time,1,P,4,1,38,4312,0,1,423.5,341,H
2023-04-15T12:20:26Z,8op4movi,serial-reaction-time,1,R,4,1,39,4312,0,3,394.79999999981374,413,H
2023-04-15T12:20:27Z,8op4movi,serial-reaction-time,1,P,4,1,40,4312,0,2,469.5999999996274,132,H
2023-04-15T12:20:27Z,8op4movi,serial-reaction-time,1,R,4,1,41,4312,0,4,382.30000000074506,324,L
2023-04-15T12:20:28Z,8op4movi,serial-reaction-time,NA,P,4,1,42,4312,0,4,376.6000000005588,244,H
2023-04-15T12:20:28Z,8op4movi,serial-reaction-time,1,P,4,0,42,4312,0,4,764,244,H
2023-04-15T12:20:28Z,8op4movi,serial-reaction-time,1,R,4,1,43,4312,0,4,272.59999999962747,444,R
2023-04-15T12:20:29Z,8op4movi,serial-reaction-time,1,P,4,1,44,4312,0,3,477.70000000018626,443,H
2023-04-15T12:20:30Z,8op4movi,serial-reaction-time,1,R,4,1,45,4312,0,4,557.2999999998137,434,T
2023-04-15T12:20:30Z,8op4movi,serial-reaction-time,NA,P,4,1,46,4312,0,1,417.5999999996274,341,H
2023-04-15T12:20:31Z,8op4movi,serial-reaction-time,1,P,4,0,46,4312,0,1,750.2999999998137,341,H
2023-04-15T12:20:31Z,8op4movi,serial-reaction-time,1,R,4,1,47,4312,0,2,604.2000000001863,412,L
2023-04-15T12:20:32Z,8op4movi,serial-reaction-time,1,P,4,1,48,4312,0,2,330.1000000005588,122,H
2023-04-15T12:20:32Z,8op4movi,serial-reaction-time,1,R,4,1,49,4312,0,1,434.0999999996274,221,L
2023-04-15T12:20:33Z,8op4movi,serial-reaction-time,1,P,4,1,50,4312,0,4,452.5999999996274,214,H
2023-04-15T12:20:34Z,8op4movi,serial-reaction-time,1,R,4,1,51,4312,0,2,486.4000000003726,142,H
2023-04-15T12:20:34Z,8op4movi,serial-reaction-time,1,P,4,1,52,4312,0,3,401.8999999994412,423,H
2023-04-15T12:20:35Z,8op4movi,serial-reaction-time,1,R,4,1,53,4312,0,1,390.9000000003726,231,L
2023-04-15T12:20:35Z,8op4movi,serial-reaction-time,1,P,4,1,54,4312,0,1,341.59999999962747,311,H
2023-04-15T12:20:36Z,8op4movi,serial-reaction-time,1,R,4,1,55,4312,0,4,385.29999999981374,114,L
2023-04-15T12:20:36Z,8op4movi,serial-reaction-time,1,P,4,1,56,4312,0,2,462.79999999981374,142,H
2023-04-15T12:20:37Z,8op4movi,serial-reaction-time,1,R,4,1,57,4312,0,3,359.20000000018626,423,H
2023-04-15T12:20:37Z,8op4movi,serial-reaction-time,NA,P,4,1,58,4312,0,4,310.40000000037253,234,H
2023-04-15T12:20:37Z,8op4movi,serial-reaction-time,1,P,4,0,58,4312,0,4,584.7000000001863,234,H
2023-04-15T12:20:38Z,8op4movi,serial-reaction-time,1,R,4,1,59,4312,0,4,331,344,L
2023-04-15T12:20:38Z,8op4movi,serial-reaction-time,1,P,4,1,60,4312,0,3,503.4000000003726,443,H
2023-04-15T12:20:39Z,8op4movi,serial-reaction-time,NA,R,4,1,61,4312,0,2,394.79999999981374,432,L
2023-04-15T12:20:39Z,8op4movi,serial-reaction-time,1,R,4,0,61,4312,0,2,770.6000000005588,432,L
2023-04-15T12:20:40Z,8op4movi,serial-reaction-time,1,P,4,1,62,4312,0,1,360.4000000003726,321,H
2023-04-15T12:20:40Z,8op4movi,serial-reaction-time,1,R,4,1,63,4312,0,2,561.7999999998137,212,T
2023-04-15T12:20:41Z,8op4movi,serial-reaction-time,1,P,4,1,64,4312,0,2,392.29999999981374,122,H
2023-04-15T12:20:42Z,8op4movi,serial-reaction-time,1,R,4,1,65,4312,0,4,424.0999999996274,224,H
2023-04-15T12:20:42Z,8op4movi,serial-reaction-time,1,P,4,1,66,4312,0,4,308.1000000005588,244,H
2023-04-15T12:20:43Z,8op4movi,serial-reaction-time,1,R,4,1,67,4312,0,2,450.70000000018626,442,L
2023-04-15T12:20:43Z,8op4movi,serial-reaction-time,1,P,4,1,68,4312,0,3,365.20000000018626,423,H
2023-04-15T12:20:44Z,8op4movi,serial-reaction-time,NA,R,4,1,69,4312,0,1,367.20000000018626,231,L
2023-04-15T12:20:44Z,8op4movi,serial-reaction-time,1,R,4,0,69,4312,0,1,693.9000000003725,231,L
2023-04-15T12:20:44Z,8op4movi,serial-reaction-time,1,P,4,1,70,4312,0,1,358.40000000037253,311,H
2023-04-15T12:20:45Z,8op4movi,serial-reaction-time,NA,R,4,1,71,4312,0,2,428.8999999994412,112,H
2023-04-15T12:20:46Z,8op4movi,serial-reaction-time,1,R,4,0,71,4312,0,2,1337.7999999998135,112,H
2023-04-15T12:20:46Z,8op4movi,serial-reaction-time,1,P,4,1,72,4312,0,2,466.6000000005588,122,H
2023-04-15T12:20:47Z,8op4movi,serial-reaction-time,1,R,4,1,73,4312,0,4,406.70000000018626,224,H
2023-04-15T12:20:47Z,8op4movi,serial-reaction-time,1,P,4,1,74,4312,0,4,355.90000000037253,244,H
2023-04-15T12:20:48Z,8op4movi,serial-reaction-time,1,R,4,1,75,4312,0,2,483.29999999981374,442,L
2023-04-15T12:20:49Z,8op4movi,serial-reaction-time,1,P,4,1,76,4312,0,3,564.0999999996275,423,H
2023-04-15T12:20:49Z,8op4movi,serial-reaction-time,1,R,4,1,77,4312,0,3,297.90000000037253,233,L
2023-04-15T12:20:50Z,8op4movi,serial-reaction-time,1,P,4,1,78,4312,0,1,447.79999999981374,331,H
2023-04-15T12:20:50Z,8op4movi,serial-reaction-time,1,R,4,1,79,4312,0,4,476.1000000005588,314,L
2023-04-15T12:20:51Z,8op4movi,serial-reaction-time,1,P,4,1,80,4312,0,2,438.70000000018626,142,H
2023-04-15T12:20:56Z,8op4movi,html-keyboard-response,NA,NA,NA,NA,NA,NA,NA,NA,NA,NA,NA
2023-04-15T12:21:04Z,8op4movi,html-keyboard-response,NA,NA,NA,NA,NA,NA,NA,NA,NA,NA,NA
2023-04-15T12:21:14Z,8op4movi,html-keyboard-response,NA,NA,NA,NA,NA,NA,NA,NA,NA,NA,NA
2023-04-15T12:21:16Z,8op4movi,serial-reaction-time,1,R,5,1,1,4312,0,4,655.5,4,X
2023-04-15T12:21:16Z,8op4movi,serial-reaction-time,1,P,5,1,2,4312,0,4,321.20000000018626,44,X
2023-04-15T12:21:17Z,8op4movi,serial-reaction-time,1,R,5,1,3,4312,0,3,528.2999999998137,443,H
2023-04-15T12:21:17Z,8op4movi,serial-reaction-time,1,P,5,1,4,4312,0,3,349.80000000074506,433,H
2023-04-15T12:21:18Z,8op4movi,serial-reaction-time,1,R,5,1,5,4312,0,3,348.09999999962747,333,R
2023-04-15T12:21:18Z,8op4movi,serial-reaction-time,1,P,5,1,6,4312,0,1,437,331,H
2023-04-15T12:21:19Z,8op4movi,serial-reaction-time,1,R,5,1,7,4312,0,1,306.29999999981374,311,H
2023-04-15T12:21:19Z,8op4movi,serial-reaction-time,1,P,5,1,8,4312,0,2,394.69999999925494,112,H
2023-04-15T12:21:20Z,8op4movi,serial-reaction-time,1,R,5,1,9,4312,0,2,318.5,122,H
2023-04-15T12:21:21Z,8op4movi,serial-reaction-time,1,P,5,1,10,4312,0,4,555.9000000003725,224,H
2023-04-15T12:21:21Z,8op4movi,serial-reaction-time,1,R,5,1,11,4312,0,4,357.6000000005588,244,H
2023-04-15T12:21:22Z,8op4movi,serial-reaction-time,1,P,5,1,12,4312,0,3,422.4000000003726,443,H
2023-04-15T12:21:22Z,8op4movi,serial-reaction-time,1,R,5,1,13,4312,0,1,409,431,L
2023-04-15T12:21:23Z,8op4movi,serial-reaction-time,1,P,5,1,14,4312,0,1,346.59999999962747,311,H
2023-04-15T12:21:23Z,8op4movi,serial-reaction-time,1,R,5,1,15,4312,0,4,498.5,114,L
2023-04-15T12:21:24Z,8op4movi,serial-reaction-time,1,P,5,1,16,4312,0,2,500.4000000003726,142,H
2023-04-15T12:21:24Z,8op4movi,serial-reaction-time,1,R,5,1,17,4312,0,2,387.9000000003726,422,L
2023-04-15T12:21:25Z,8op4movi,serial-reaction-time,1,P,5,1,18,4312,0,4,468.8999999994412,224,H
2023-04-15T12:21:25Z,8op4movi,serial-reaction-time,1,R,5,1,19,4312,0,4,305.09999999962747,244,H
2023-04-15T12:21:26Z,8op4movi,serial-reaction-time,1,P,5,1,20,4312,0,3,376.9000000003726,443,H
2023-04-15T12:21:26Z,8op4movi,serial-reaction-time,1,R,5,1,21,4312,0,4,337.70000000018626,434,T
2023-04-15T12:21:27Z,8op4movi,serial-reaction-time,1,P,5,1,22,4312,0,1,434.70000000018626,341,H
2023-04-15T12:21:27Z,8op4movi,serial-reaction-time,1,R,5,1,23,4312,0,3,404.5,413,H
2023-04-15T12:21:28Z,8op4movi,serial-reaction-time,1,P,5,1,24,4312,0,2,548.9000000003725,132,H
2023-04-15T12:21:29Z,8op4movi,serial-reaction-time,1,R,5,1,25,4312,0,2,358.09999999962747,322,L
2023-04-15T12:21:29Z,8op4movi,serial-reaction-time,1,P,5,1,26,4312,0,4,392,224,H
2023-04-15T12:21:30Z,8op4movi,serial-reaction-time,NA,R,5,1,27,4312,0,1,497.5,241,L
2023-04-15T12:21:30Z,8op4movi,serial-reaction-time,1,R,5,0,27,4312,0,1,944.4000000003724,241,L
2023-04-15T12:21:31Z,8op4movi,serial-reaction-time,1,P,5,1,28,4312,0,3,478,413,H
2023-04-15T12:21:31Z,8op4movi,serial-reaction-time,1,R,5,1,29,4312,0,3,357.1000000005588,133,L
2023-04-15T12:21:32Z,8op4movi,serial-reaction-time,1,P,5,1,30,4312,0,1,557.5999999996275,331,H
2023-04-15T12:21:32Z,8op4movi,serial-reaction-time,1,R,5,1,31,4312,0,1,335,311,H
2023-04-15T12:21:33Z,8op4movi,serial-reaction-time,1,P,5,1,32,4312,0,2,546.7000000001863,112,H
2023-04-15T12:21:34Z,8op4movi,serial-reaction-time,1,R,5,1,33,4312,0,1,368.9000000003726,121,T
2023-04-15T12:21:34Z,8op4movi,serial-reaction-time,1,P,5,1,34,4312,0,4,463.4000000003726,214,H
2023-04-15T12:21:35Z,8op4movi,serial-reaction-time,1,R,5,1,35,4312,0,1,475.29999999981374,141,T
2023-04-15T12:21:35Z,8op4movi,serial-reaction-time,1,P,5,1,36,4312,0,3,433.6000000005588,413,H
2023-04-15T12:21:36Z,8op4movi,serial-reaction-time,1,R,5,1,37,4312,0,3,348.3999999994412,133,L
2023-04-15T12:21:36Z,8op4movi,serial-reaction-time,1,P,5,1,38,4312,0,1,459.20000000018626,331,H
2023-04-15T12:21:37Z,8op4movi,serial-reaction-time,1,R,5,1,39,4312,0,1,320.40000000037253,311,H
2023-04-15T12:21:37Z,8op4movi,serial-reaction-time,1,P,5,1,40,4312,0,2,431.8999999994412,112,H
2023-04-15T12:21:38Z,8op4movi,serial-reaction-time,1,R,5,1,41,4312,0,1,420.19999999925494,121,T
2023-04-15T12:21:38Z,8op4movi,serial-reaction-time,1,P,5,1,42,4312,0,4,384,214,H
2023-04-15T12:21:39Z,8op4movi,serial-reaction-time,1,R,5,1,43,4312,0,1,419.6000000005588,141,T
2023-04-15T12:21:40Z,8op4movi,serial-reaction-time,1,P,5,1,44,4312,0,3,388.20000000018626,413,H
2023-04-15T12:21:40Z,8op4movi,serial-reaction-time,1,R,5,1,45,4312,0,2,513.5,132,H
2023-04-15T12:21:41Z,8op4movi,serial-reaction-time,1,P,5,1,46,4312,0,1,463.9000000003726,321,H
2023-04-15T12:21:41Z,8op4movi,serial-reaction-time,1,R,5,1,47,4312,0,4,420,214,H
2023-04-15T12:21:42Z,8op4movi,serial-reaction-time,1,P,5,1,48,4312,0,2,409.0999999996274,142,H
2023-04-15T12:21:42Z,8op4movi,serial-reaction-time,NA,R,5,1,49,4312,0,3,378.29999999981374,423,H
2023-04-15T12:21:43Z,8op4movi,serial-reaction-time,1,R,5,0,49,4312,0,3,808.1999999992549,423,H
2023-04-15T12:21:43Z,8op4movi,serial-reaction-time,1,P,5,1,50,4312,0,4,404.70000000018626,234,H
2023-04-15T12:21:44Z,8op4movi,serial-reaction-time,1,R,5,1,51,4312,0,2,526.4000000003725,342,L
2023-04-15T12:21:45Z,8op4movi,serial-reaction-time,1,P,5,1,52,4312,0,3,526.0999999996275,423,H
2023-04-15T12:21:45Z,8op4movi,serial-reaction-time,1,R,5,1,53,4312,0,3,367.8999999994412,233,L
2023-04-15T12:21:46Z,8op4movi,serial-reaction-time,1,P,5,1,54,4312,0,1,374.5,331,H
2023-04-15T12:21:46Z,8op4movi,serial-reaction-time,1,R,5,1,55,4312,0,2,622,312,L
2023-04-15T12:21:47Z,8op4movi,serial-reaction-time,1,P,5,1,56,4312,0,2,387.5999999996274,122,H
2023-04-15T12:21:47Z,8op4movi,serial-reaction-time,1,R,5,1,57,4312,0,3,384.9000000003726,223,L
2023-04-15T12:21:48Z,8op4movi,serial-reaction-time,1,P,5,1,58,4312,0,4,395.9000000003726,234,H
2023-04-15T12:21:49Z,8op4movi,serial-reaction-time,1,R,5,1,59,4312,0,2,519.2000000001863,342,L
2023-04-15T12:21:49Z,8op4movi,serial-reaction-time,1,P,5,1,60,4312,0,3,548.6999999992549,423,H
2023-04-15T12:21:50Z,8op4movi,serial-reaction-time,1,R,5,1,61,4312,0,2,684.5999999996275,232,T
2023-04-15T12:21:51Z,8op4movi,serial-reaction-time,1,P,5,1,62,4312,0,1,593.5,321,H
2023-04-15T12:21:51Z,8op4movi,serial-reaction-time,1,R,5,1,63,4312,0,3,438,213,L
2023-04-15T12:21:52Z,8op4movi,serial-reaction-time,1,P,5,1,64,4312,0,2,455.70000000018626,132,H
2023-04-15T12:21:52Z,8op4movi,serial-reaction-time,1,R,5,1,65,4312,0,2,410.6000000005588,322,L
2023-04-15T12:21:53Z,8op4movi,serial-reaction-time,1,P,5,1,66,4312,0,4,343.90000000037253,224,H
2023-04-15T12:21:53Z,8op4movi,serial-reaction-time,1,R,5,1,67,4312,0,4,363.79999999981374,244,H
2023-04-15T12:21:54Z,8op4movi,serial-reaction-time,1,P,5,1,68,4312,0,3,617.5999999996275,443,H
2023-04-15T12:21:55Z,8op4movi,serial-reaction-time,1,R,5,1,69,4312,0,1,433.0999999996274,431,L
2023-04-15T12:21:55Z,8op4movi,serial-reaction-time,1,P,5,1,70,4312,0,1,291.70000000018626,311,H
2023-04-15T12:21:56Z,8op4movi,serial-reaction-time,NA,R,5,1,71,4312,0,4,448.69999999925494,114,L
2023-04-15T12:21:56Z,8op4movi,serial-reaction-time,1,R,5,0,71,4312,0,4,802.8999999994412,114,L
2023-04-15T12:21:57Z,8op4movi,serial-reaction-time,1,P,5,1,72,4312,0,2,490.0999999996274,142,H
2023-04-15T12:21:57Z,8op4movi,serial-reaction-time,1,R,5,1,73,4312,0,4,418.70000000018626,424,T
2023-04-15T12:21:58Z,8op4movi,serial-reaction-time,1,P,5,1,74,4312,0,4,321.8999999994412,244,H
2023-04-15T12:21:58Z,8op4movi,serial-reaction-time,1,R,5,1,75,4312,0,1,362.0999999996274,441,L
2023-04-15T12:21:59Z,8op4movi,serial-reaction-time,1,P,5,1,76,4312,0,3,459.20000000018626,413,H
2023-04-15T12:21:59Z,8op4movi,serial-reaction-time,1,R,5,1,77,4312,0,2,349.70000000018626,132,H
2023-04-15T12:22:00Z,8op4movi,serial-reaction-time,1,P,5,1,78,4312,0,1,410.5,321,H
2023-04-15T12:22:00Z,8op4movi,serial-reaction-time,1,R,5,1,79,4312,0,2,515,212,T
2023-04-15T12:22:01Z,8op4movi,serial-reaction-time,1,P,5,1,80,4312,0,2,448.6000000005588,122,H
2023-04-15T12:22:06Z,8op4movi,html-keyboard-response,NA,NA,NA,NA,NA,NA,NA,NA,NA,NA,NA
2023-04-15T12:22:09Z,8op4movi,html-keyboard-response,NA,NA,NA,NA,NA,NA,NA,NA,NA,NA,NA
2023-04-15T12:22:10Z,8op4movi,fullscreen,NA,NA,NA,NA,NA,NA,NA,NA,NA,NA,NA
2023-04-15T14:05:48Z,bjgjzktt,fullscreen,NA,NA,NA,NA,NA,NA,NA,NA,NA,NA,NA
2023-04-15T14:05:52Z,bjgjzktt,html-keyboard-response,NA,NA,NA,NA,NA,NA,NA,NA,NA,NA,NA
2023-04-15T14:05:54Z,bjgjzktt,serial-reaction-time,1,R,1,1,1,2413,0,3,458,3,X
2023-04-15T14:05:54Z,bjgjzktt,serial-reaction-time,1,P,1,1,2,2413,0,2,378,32,X
2023-04-15T14:05:55Z,bjgjzktt,serial-reaction-time,1,R,1,1,3,2413,0,2,358,322,H
2023-04-15T14:05:55Z,bjgjzktt,serial-reaction-time,1,P,1,1,4,2413,0,4,437,224,H
2023-04-15T14:05:56Z,bjgjzktt,serial-reaction-time,1,R,1,1,5,2413,0,1,504,241,L
2023-04-15T14:05:56Z,bjgjzktt,serial-reaction-time,1,P,1,1,6,2413,0,1,483,411,H
2023-04-15T14:05:57Z,bjgjzktt,serial-reaction-time,1,R,1,1,7,2413,0,4,434,114,L
2023-04-15T14:05:58Z,bjgjzktt,serial-reaction-time,1,P,1,1,8,2413,0,3,452,143,H
2023-04-15T14:05:58Z,bjgjzktt,serial-reaction-time,1,R,1,1,9,2413,0,2,447,432,L
2023-04-15T14:05:59Z,bjgjzktt,serial-reaction-time,1,P,1,1,10,2413,0,2,345,322,H
2023-04-15T14:05:59Z,bjgjzktt,serial-reaction-time,1,R,1,1,11,2413,0,2,404,222,R
2023-04-15T14:06:00Z,bjgjzktt,serial-reaction-time,1,P,1,1,12,2413,0,4,453,224,H
2023-04-15T14:06:00Z,bjgjzktt,serial-reaction-time,1,R,1,1,13,2413,0,4,366,244,H
2023-04-15T14:06:01Z,bjgjzktt,serial-reaction-time,1,P,1,1,14,2413,0,1,536,441,H
2023-04-15T14:06:02Z,bjgjzktt,serial-reaction-time,1,R,1,1,15,2413,0,4,467,414,T
2023-04-15T14:06:02Z,bjgjzktt,serial-reaction-time,1,P,1,1,16,2413,0,3,568,143,H
2023-04-15T14:06:03Z,bjgjzktt,serial-reaction-time,1,R,1,1,17,2413,0,3,402,433,L
2023-04-15T14:06:03Z,bjgjzktt,serial-reaction-time,1,P,1,1,18,2413,0,2,508,332,H
2023-04-15T14:06:04Z,bjgjzktt,serial-reaction-time,1,R,1,1,19,2413,0,4,419,324,L
2023-04-15T14:06:04Z,bjgjzktt,serial-reaction-time,1,P,1,1,20,2413,0,4,300,244,H
2023-04-15T14:06:05Z,bjgjzktt,serial-reaction-time,1,R,1,1,21,2413,0,3,451,443,L
2023-04-15T14:06:06Z,bjgjzktt,serial-reaction-time,1,P,1,1,22,2413,0,1,451,431,H
2023-04-15T14:06:06Z,bjgjzktt,serial-reaction-time,1,R,1,1,23,2413,0,4,374,314,L
2023-04-15T14:06:07Z,bjgjzktt,serial-reaction-time,1,P,1,1,24,2413,0,3,396,143,H
2023-04-15T14:06:07Z,bjgjzktt,serial-reaction-time,1,R,1,1,25,2413,0,4,457,434,T
2023-04-15T14:06:08Z,bjgjzktt,serial-reaction-time,1,P,1,1,26,2413,0,2,527,342,H
2023-04-15T14:06:08Z,bjgjzktt,serial-reaction-time,1,R,1,1,27,2413,0,3,458,423,L
2023-04-15T14:06:09Z,bjgjzktt,serial-reaction-time,1,P,1,1,28,2413,0,4,431,234,H
2023-04-15T14:06:10Z,bjgjzktt,serial-reaction-time,1,R,1,1,29,2413,0,1,424,341,L
2023-04-15T14:06:10Z,bjgjzktt,serial-reaction-time,1,P,1,1,30,2413,0,1,348,411,H
2023-04-15T14:06:11Z,bjgjzktt,serial-reaction-time,1,R,1,1,31,2413,0,3,469,113,H
2023-04-15T14:06:11Z,bjgjzktt,serial-reaction-time,1,P,1,1,32,2413,0,3,373,133,H
2023-04-15T14:06:12Z,bjgjzktt,serial-reaction-time,1,R,1,1,33,2413,0,4,477,334,L
2023-04-15T14:06:12Z,bjgjzktt,serial-reaction-time,1,P,1,1,34,2413,0,2,520,342,H
2023-04-15T14:06:13Z,bjgjzktt,serial-reaction-time,1,R,1,1,35,2413,0,1,458,421,H
2023-04-15T14:06:14Z,bjgjzktt,serial-reaction-time,1,P,1,1,36,2413,0,4,431,214,H
2023-04-15T14:06:14Z,bjgjzktt,serial-reaction-time,1,R,1,1,37,2413,0,3,536,143,H
2023-04-15T14:06:15Z,bjgjzktt,serial-reaction-time,1,P,1,1,38,2413,0,1,415,431,H
2023-04-15T14:06:16Z,bjgjzktt,serial-reaction-time,1,R,1,1,39,2413,0,2,605,312,H
2023-04-15T14:06:16Z,bjgjzktt,serial-reaction-time,1,P,1,1,40,2413,0,3,458,123,H
2023-04-15T14:06:17Z,bjgjzktt,serial-reaction-time,1,R,1,1,41,2413,0,2,370,232,T
2023-04-15T14:06:17Z,bjgjzktt,serial-reaction-time,1,P,1,1,42,2413,0,2,443,322,H
2023-04-15T14:06:18Z,bjgjzktt,serial-reaction-time,NA,R,1,1,43,2413,0,1,391,221,L
2023-04-15T14:06:18Z,bjgjzktt,serial-reaction-time,1,R,1,0,43,2413,0,1,680,221,L
2023-04-15T14:06:19Z,bjgjzktt,serial-reaction-time,1,P,1,1,44,2413,0,4,387,214,H
2023-04-15T14:06:19Z,bjgjzktt,serial-reaction-time,1,R,1,1,45,2413,0,2,478,142,L
2023-04-15T14:06:20Z,bjgjzktt,serial-reaction-time,1,P,1,1,46,2413,0,1,500,421,H
2023-04-15T14:06:20Z,bjgjzktt,serial-reaction-time,1,R,1,1,47,2413,0,1,363,211,L
2023-04-15T14:06:21Z,bjgjzktt,serial-reaction-time,1,P,1,1,48,2413,0,3,607,113,H
2023-04-15T14:06:22Z,bjgjzktt,serial-reaction-time,1,R,1,1,49,2413,0,2,644,132,L
2023-04-15T14:06:22Z,bjgjzktt,serial-reaction-time,1,P,1,1,50,2413,0,2,329,322,H
2023-04-15T14:06:23Z,bjgjzktt,serial-reaction-time,1,R,1,1,51,2413,0,3,430,223,L
2023-04-15T14:06:24Z,bjgjzktt,serial-reaction-time,1,P,1,1,52,2413,0,4,517,234,H
2023-04-15T14:06:24Z,bjgjzktt,serial-reaction-time,NA,R,1,1,53,2413,0,3,464,343,T
2023-04-15T14:06:24Z,bjgjzktt,serial-reaction-time,1,R,1,0,53,2413,0,3,829,343,T
2023-04-15T14:06:25Z,bjgjzktt,serial-reaction-time,1,P,1,1,54,2413,0,1,424,431,H
2023-04-15T14:06:26Z,bjgjzktt,serial-reaction-time,1,R,1,1,55,2413,0,3,447,313,T
2023-04-15T14:06:26Z,bjgjzktt,serial-reaction-time,1,P,1,1,56,2413,0,3,328,133,H
2023-04-15T14:06:27Z,bjgjzktt,serial-reaction-time,1,R,1,1,57,2413,0,3,347,333,R
2023-04-15T14:06:27Z,bjgjzktt,serial-reaction-time,1,P,1,1,58,2413,0,2,540,332,H
2023-04-15T14:06:28Z,bjgjzktt,serial-reaction-time,1,R,1,1,59,2413,0,3,410,323,T
2023-04-15T14:06:28Z,bjgjzktt,serial-reaction-time,1,P,1,1,60,2413,0,4,497,234,H
2023-04-15T14:06:29Z,bjgjzktt,serial-reaction-time,1,R,1,1,61,2413,0,3,480,343,T
2023-04-15T14:06:30Z,bjgjzktt,serial-reaction-time,1,P,1,1,62,2413,0,1,637,431,H
2023-04-15T14:06:30Z,bjgjzktt,serial-reaction-time,1,R,1,1,63,2413,0,1,475,311,L
2023-04-15T14:06:31Z,bjgjzktt,serial-reaction-time,1,P,1,1,64,2413,0,3,426,113,H
2023-04-15T14:06:31Z,bjgjzktt,serial-reaction-time,1,R,1,1,65,2413,0,3,347,133,H
2023-04-15T14:06:32Z,bjgjzktt,serial-reaction-time,1,P,1,1,66,2413,0,2,605,332,H
2023-04-15T14:06:33Z,bjgjzktt,serial-reaction-time,1,R,1,1,67,2413,0,4,557,324,L
2023-04-15T14:06:33Z,bjgjzktt,serial-reaction-time,1,P,1,1,68,2413,0,4,373,244,H
2023-04-15T14:06:34Z,bjgjzktt,serial-reaction-time,1,R,1,1,69,2413,0,1,487,441,H
2023-04-15T14:06:34Z,bjgjzktt,serial-reaction-time,1,P,1,1,70,2413,0,1,326,411,H
2023-04-15T14:06:35Z,bjgjzktt,serial-reaction-time,1,R,1,1,71,2413,0,4,409,114,L
2023-04-15T14:06:36Z,bjgjzktt,serial-reaction-time,1,P,1,1,72,2413,0,3,460,143,H
2023-04-15T14:06:36Z,bjgjzktt,serial-reaction-time,1,R,1,1,73,2413,0,3,348,433,L
2023-04-15T14:06:37Z,bjgjzktt,serial-reaction-time,1,P,1,1,74,2413,0,2,420,332,H
