datetime,id,trial_type,correct,p_or_r,block,first_response,trial_number,sequence,is_practice,correct_pos,cumulative_rt,actual_triplet,triplet_type
2023-04-11T22:49:39Z,qh2z8vvu,fullscreen,NA,NA,NA,NA,NA,NA,NA,NA,NA,NA,NA
2023-04-11T22:49:43Z,qh2z8vvu,html-keyboard-response,NA,NA,NA,NA,NA,NA,NA,NA,NA,NA,NA
2023-04-11T22:49:45Z,qh2z8vvu,serial-reaction-time,1,R,1,1,1,4132,0,2,475.199999988079,2,X
2023-04-11T22:49:45Z,qh2z8vvu,serial-reaction-time,1,P,1,1,2,4132,0,4,433.5,24,X
2023-04-11T22:49:46Z,qh2z8vvu,serial-reaction-time,1,R,1,1,3,4132,0,1,505.7999999523163,241,L
2023-04-11T22:49:46Z,qh2z8vvu,serial-reaction-time,1,P,1,1,4,4132,0,1,307.39999997615814,411,H
2023-04-11T22:49:47Z,qh2z8vvu,serial-reaction-time,1,R,1,1,5,4132,0,3,335.30000001192093,113,H
2023-04-11T22:49:47Z,qh2z8vvu,serial-reaction-time,1,P,1,1,6,4132,0,3,282.80000001192093,133,H
2023-04-11T22:49:48Z,qh2z8vvu,serial-reaction-time,1,R,1,1,7,4132,0,2,370.39999997615814,332,H
2023-04-11T22:49:48Z,qh2z8vvu,serial-reaction-time,1,P,1,1,8,4132,0,2,266.30000001192093,322,H
2023-04-11T22:49:49Z,qh2z8vvu,serial-reaction-time,1,R,1,1,9,4132,0,3,340.0999999642372,223,L
2023-04-11T22:49:49Z,qh2z8vvu,serial-reaction-time,1,P,1,1,10,4132,0,4,373.0999999642372,234,H
2023-04-11T22:49:50Z,qh2z8vvu,serial-reaction-time,NA,R,1,1,11,4132,0,2,254.89999997615817,342,H
2023-04-11T22:49:50Z,qh2z8vvu,serial-reaction-time,1,R,1,0,11,4132,0,2,372.99999994039536,342,H
2023-04-11T22:49:50Z,qh2z8vvu,serial-reaction-time,1,P,1,1,12,4132,0,1,370.4000000357628,421,H
2023-04-11T22:49:51Z,qh2z8vvu,serial-reaction-time,1,R,1,1,13,4132,0,3,377.5999999642372,213,L
2023-04-11T22:49:51Z,qh2z8vvu,serial-reaction-time,1,P,1,1,14,4132,0,3,214.4000000357628,133,H
2023-04-11T22:49:52Z,qh2z8vvu,serial-reaction-time,1,R,1,1,15,4132,0,2,371.699999988079,332,H
2023-04-11T22:49:52Z,qh2z8vvu,serial-reaction-time,1,P,1,1,16,4132,0,2,292.89999997615814,322,H
2023-04-11T22:49:52Z,qh2z8vvu,serial-reaction-time,1,R,1,1,17,4132,0,2,287,222,R
2023-04-11T22:49:53Z,qh2z8vvu,serial-reaction-time,1,P,1,1,18,4132,0,4,319.89999997615814,224,H
2023-04-11T22:49:53Z,qh2z8vvu,serial-reaction-time,NA,R,1,1,19,4132,0,2,305.60000002384186,242,T
2023-04-11T22:49:54Z,qh2z8vvu,serial-reaction-time,1,R,1,0,19,4132,0,2,532.3000000119209,242,T
2023-04-11T22:49:54Z,qh2z8vvu,serial-reaction-time,1,P,1,1,20,4132,0,1,384.39999997615814,421,H
2023-04-11T22:49:54Z,qh2z8vvu,serial-reaction-time,1,R,1,1,21,4132,0,1,246.5,211,L
2023-04-11T22:49:55Z,qh2z8vvu,serial-reaction-time,1,P,1,1,22,4132,0,3,288.7999999523163,113,H
2023-04-11T22:49:55Z,qh2z8vvu,serial-reaction-time,1,R,1,1,23,4132,0,3,289.10000002384186,133,H
2023-04-11T22:49:56Z,qh2z8vvu,serial-reaction-time,1,P,1,1,24,4132,0,2,268.5,332,H
2023-04-11T22:49:56Z,qh2z8vvu,serial-reaction-time,1,R,1,1,25,4132,0,1,323.89999997615814,321,L
2023-04-11T22:49:57Z,qh2z8vvu,serial-reaction-time,1,P,1,1,26,4132,0,4,310.80000001192093,214,H
2023-04-11T22:49:57Z,qh2z8vvu,serial-reaction-time,NA,R,1,1,27,4132,0,2,254.69999998807907,142,L
2023-04-11T22:49:57Z,qh2z8vvu,serial-reaction-time,1,R,1,0,27,4132,0,2,522,142,L
2023-04-11T22:49:58Z,qh2z8vvu,serial-reaction-time,1,P,1,1,28,4132,0,1,491.10000002384186,421,H
2023-04-11T22:49:58Z,qh2z8vvu,serial-reaction-time,1,R,1,1,29,4132,0,3,344.89999997615814,213,L
2023-04-11T22:49:59Z,qh2z8vvu,serial-reaction-time,1,P,1,1,30,4132,0,3,267.9000000357628,133,H
2023-04-11T22:49:59Z,qh2z8vvu,serial-reaction-time,1,R,1,1,31,4132,0,1,304.5,331,L
2023-04-11T22:50:00Z,qh2z8vvu,serial-reaction-time,NA,P,1,1,32,4132,0,2,431.10000002384186,312,H
2023-04-11T22:50:00Z,qh2z8vvu,serial-reaction-time,1,P,1,0,32,4132,0,2,575.5,312,H
2023-04-11T22:50:00Z,qh2z8vvu,serial-reaction-time,1,R,1,1,33,4132,0,1,464,121,T
2023-04-11T22:50:01Z,qh2z8vvu,serial-reaction-time,1,P,1,1,34,4132,0,4,401.10000002384186,214,H
2023-04-11T22:50:01Z,qh2z8vvu,serial-reaction-time,1,R,1,1,35,4132,0,4,337.5,144,L
2023-04-11T22:50:02Z,qh2z8vvu,serial-reaction-time,NA,P,1,1,36,4132,0,1,317,441,H
2023-04-11T22:50:02Z,qh2z8vvu,serial-reaction-time,1,P,1,0,36,4132,0,1,577.6000000238419,441,H
2023-04-11T22:50:03Z,qh2z8vvu,serial-reaction-time,1,R,1,1,37,4132,0,4,440.800000011921,414,T
2023-04-11T22:50:03Z,qh2z8vvu,serial-reaction-time,NA,P,1,1,38,4132,0,3,305.4000000357628,143,H
2023-04-11T22:50:03Z,qh2z8vvu,serial-reaction-time,1,P,1,0,38,4132,0,3,494.300000011921,143,H
2023-04-11T22:50:04Z,qh2z8vvu,serial-reaction-time,NA,R,1,1,39,4132,0,1,376.0999999642372,431,H
2023-04-11T22:50:04Z,qh2z8vvu,serial-reaction-time,1,R,1,0,39,4132,0,1,569.6999999880791,431,H
2023-04-11T22:50:05Z,qh2z8vvu,serial-reaction-time,1,P,1,1,40,4132,0,2,467.2000000476837,312,H
2023-04-11T22:50:05Z,qh2z8vvu,serial-reaction-time,1,R,1,1,41,4132,0,2,330.19999998807907,122,L
2023-04-11T22:50:06Z,qh2z8vvu,serial-reaction-time,1,P,1,1,42,4132,0,4,435.300000011921,224,H
2023-04-11T22:50:06Z,qh2z8vvu,serial-reaction-time,1,R,1,1,43,4132,0,1,426.800000011921,241,L
2023-04-11T22:50:07Z,qh2z8vvu,serial-reaction-time,1,P,1,1,44,4132,0,1,311.39999997615814,411,H
2023-04-11T22:50:07Z,qh2z8vvu,serial-reaction-time,1,R,1,1,45,4132,0,1,294.89999997615814,111,R
2023-04-11T22:50:08Z,qh2z8vvu,serial-reaction-time,1,P,1,1,46,4132,0,3,341,113,H
2023-04-11T22:50:08Z,qh2z8vvu,serial-reaction-time,1,R,1,1,47,4132,0,3,324.7000000476837,133,H
2023-04-11T22:50:08Z,qh2z8vvu,serial-reaction-time,1,P,1,1,48,4132,0,2,332.5,332,H
2023-04-11T22:50:09Z,qh2z8vvu,serial-reaction-time,1,R,1,1,49,4132,0,2,295.69999998807907,322,H
2023-04-11T22:50:09Z,qh2z8vvu,serial-reaction-time,1,P,1,1,50,4132,0,4,440.2000000476837,224,H
2023-04-11T22:50:10Z,qh2z8vvu,serial-reaction-time,1,R,1,1,51,4132,0,1,315.19999998807907,241,L
2023-04-11T22:50:10Z,qh2z8vvu,serial-reaction-time,1,P,1,1,52,4132,0,1,304.69999998807907,411,H
2023-04-11T22:50:11Z,qh2z8vvu,serial-reaction-time,1,R,1,1,53,4132,0,2,420.4000000357628,112,L
2023-04-11T22:50:11Z,qh2z8vvu,serial-reaction-time,1,P,1,1,54,4132,0,3,403.60000002384186,123,H
2023-04-11T22:50:12Z,qh2z8vvu,serial-reaction-time,1,R,1,1,55,4132,0,4,383.60000002384186,234,H
2023-04-11T22:50:12Z,qh2z8vvu,serial-reaction-time,NA,P,1,1,56,4132,0,2,336.5,342,H
2023-04-11T22:50:13Z,qh2z8vvu,serial-reaction-time,1,P,1,0,56,4132,0,2,580.1999999880791,342,H
2023-04-11T22:50:13Z,qh2z8vvu,serial-reaction-time,1,R,1,1,57,4132,0,2,370.5999999642372,422,L
2023-04-11T22:50:14Z,qh2z8vvu,serial-reaction-time,1,P,1,1,58,4132,0,4,649.3999999761581,224,H
2023-04-11T22:50:14Z,qh2z8vvu,serial-reaction-time,NA,R,1,1,59,4132,0,2,343.10000002384186,242,T
2023-04-11T22:50:15Z,qh2z8vvu,serial-reaction-time,1,R,1,0,59,4132,0,2,538.8999999761581,242,T
2023-04-11T22:50:15Z,qh2z8vvu,serial-reaction-time,1,P,1,1,60,4132,0,1,486,421,H
2023-04-11T22:50:16Z,qh2z8vvu,serial-reaction-time,1,R,1,1,61,4132,0,4,458.39999997615814,214,H
2023-04-11T22:50:16Z,qh2z8vvu,serial-reaction-time,NA,P,1,1,62,4132,0,3,429.60000002384186,143,H
2023-04-11T22:50:16Z,qh2z8vvu,serial-reaction-time,1,P,1,0,62,4132,0,3,633.8000000119209,143,H
2023-04-11T22:50:17Z,qh2z8vvu,serial-reaction-time,1,R,1,1,63,4132,0,2,413.5999999642372,432,L
2023-04-11T22:50:17Z,qh2z8vvu,serial-reaction-time,1,P,1,1,64,4132,0,2,309.5999999642372,322,H
2023-04-11T22:50:18Z,qh2z8vvu,serial-reaction-time,1,R,1,1,65,4132,0,3,398.9000000357628,223,L
2023-04-11T22:50:18Z,qh2z8vvu,serial-reaction-time,1,P,1,1,66,4132,0,4,390,234,H
2023-04-11T22:50:19Z,qh2z8vvu,serial-reaction-time,NA,R,1,1,67,4132,0,1,300,341,L
2023-04-11T22:50:19Z,qh2z8vvu,serial-reaction-time,1,R,1,0,67,4132,0,1,532.2000000476837,341,L
2023-04-11T22:50:20Z,qh2z8vvu,serial-reaction-time,1,P,1,1,68,4132,0,1,309,411,H
2023-04-11T22:50:20Z,qh2z8vvu,serial-reaction-time,1,R,1,1,69,4132,0,4,375,114,L
2023-04-11T22:50:21Z,qh2z8vvu,serial-reaction-time,1,P,1,1,70,4132,0,3,419.10000002384186,143,H
2023-04-11T22:50:21Z,qh2z8vvu,serial-reaction-time,1,R,1,1,71,4132,0,4,442.5999999642372,434,T
2023-04-11T22:50:22Z,qh2z8vvu,serial-reaction-time,1,P,1,1,72,4132,0,2,397.199999988079,342,H
2023-04-11T22:50:22Z,qh2z8vvu,serial-reaction-time,1,R,1,1,73,4132,0,4,425.5999999642372,424,T
2023-04-11T22:50:23Z,qh2z8vvu,serial-reaction-time,1,P,1,1,74,4132,0,4,400.699999988079,244,H
2023-04-11T22:50:23Z,qh2z8vvu,serial-reaction-time,1,R,1,1,75,4132,0,1,430.699999988079,441,H
2023-04-11T22:50:24Z,qh2z8vvu,serial-reaction-time,1,P,1,1,76,4132,0,1,290,411,H
2023-04-11T22:50:24Z,qh2z8vvu,serial-reaction-time,1,R,1,1,77,4132,0,4,365.2999999523163,114,L
2023-04-11T22:50:25Z,qh2z8vvu,serial-reaction-time,1,P,1,1,78,4132,0,3,418.199999988079,143,H
2023-04-11T22:50:25Z,qh2z8vvu,serial-reaction-time,1,R,1,1,79,4132,0,3,347.5999999642372,433,L
2023-04-11T22:50:26Z,qh2z8vvu,serial-reaction-time,1,P,1,1,80,4132,0,2,369,332,H
2023-04-11T22:50:31Z,qh2z8vvu,html-keyboard-response,NA,NA,NA,NA,NA,NA,NA,NA,NA,NA,NA
2023-04-11T22:50:31Z,qh2z8vvu,html-keyboard-response,NA,NA,NA,NA,NA,NA,NA,NA,NA,NA,NA
2023-04-11T22:50:33Z,qh2z8vvu,serial-reaction-time,1,R,2,1,1,4132,0,4,531.6999999880791,4,X
2023-04-11T22:50:33Z,qh2z8vvu,serial-reaction-time,1,P,2,1,2,4132,0,4,337.9000000357628,44,X
2023-04-11T22:50:34Z,qh2z8vvu,serial-reaction-time,1,R,2,1,3,4132,0,4,353.0999999642372,444,R
2023-04-11T22:50:34Z,qh2z8vvu,serial-reaction-time,1,P,2,1,4,4132,0,1,360.10000002384186,441,H
2023-04-11T22:50:35Z,qh2z8vvu,serial-reaction-time,1,R,2,1,5,4132,0,2,482.300000011921,412,L
2023-04-11T22:50:35Z,qh2z8vvu,serial-reaction-time,1,P,2,1,6,4132,0,3,348.9000000357628,123,H
2023-04-11T22:50:36Z,qh2z8vvu,serial-reaction-time,1,R,2,1,7,4132,0,4,417.699999988079,234,H
2023-04-11T22:50:36Z,qh2z8vvu,serial-reaction-time,1,P,2,1,8,4132,0,2,376.60000002384186,342,H
2023-04-11T22:50:37Z,qh2z8vvu,serial-reaction-time,1,R,2,1,9,4132,0,3,318.4000000357628,423,L
2023-04-11T22:50:37Z,qh2z8vvu,serial-reaction-time,1,P,2,1,10,4132,0,4,417.0999999642372,234,H
2023-04-11T22:50:38Z,qh2z8vvu,serial-reaction-time,1,R,2,1,11,4132,0,3,380.5,343,T
2023-04-11T22:50:38Z,qh2z8vvu,serial-reaction-time,NA,P,2,1,12,4132,0,1,308.5999999642372,431,H
2023-04-11T22:50:39Z,qh2z8vvu,serial-reaction-time,1,P,2,0,12,4132,0,1,497.39999997615814,431,H
2023-04-11T22:50:39Z,qh2z8vvu,serial-reaction-time,1,R,2,1,13,4132,0,2,389.300000011921,312,H
2023-04-11T22:50:40Z,qh2z8vvu,serial-reaction-time,1,P,2,1,14,4132,0,3,374.5999999642372,123,H
2023-04-11T22:50:40Z,qh2z8vvu,serial-reaction-time,1,R,2,1,15,4132,0,1,307.80000001192093,231,L
2023-04-11T22:50:40Z,qh2z8vvu,serial-reaction-time,1,P,2,1,16,4132,0,2,390.199999988079,312,H
2023-04-11T22:50:41Z,qh2z8vvu,serial-reaction-time,1,R,2,1,17,4132,0,4,367.5,124,L
2023-04-11T22:50:41Z,qh2z8vvu,serial-reaction-time,1,P,2,1,18,4132,0,4,309.5,244,H
2023-04-11T22:50:42Z,qh2z8vvu,serial-reaction-time,1,R,2,1,19,4132,0,4,328.2000000476837,444,R
2023-04-11T22:50:42Z,qh2z8vvu,serial-reaction-time,NA,P,2,1,20,4132,0,1,293,441,H
2023-04-11T22:50:42Z,qh2z8vvu,serial-reaction-time,1,P,2,0,20,4132,0,1,490.39999997615814,441,H
2023-04-11T22:50:43Z,qh2z8vvu,serial-reaction-time,NA,R,2,1,21,4132,0,2,236.30000001192093,412,L
2023-04-11T22:50:43Z,qh2z8vvu,serial-reaction-time,1,R,2,0,21,4132,0,2,461.4000000357628,412,L
2023-04-11T22:50:44Z,qh2z8vvu,serial-reaction-time,1,P,2,1,22,4132,0,3,427,123,H
2023-04-11T22:50:44Z,qh2z8vvu,serial-reaction-time,1,R,2,1,23,4132,0,4,394.5999999642372,234,H
2023-04-11T22:50:45Z,qh2z8vvu,serial-reaction-time,1,P,2,1,24,4132,0,2,387.39999997615814,342,H
2023-04-11T22:50:45Z,qh2z8vvu,serial-reaction-time,1,R,2,1,25,4132,0,3,595.7999999523163,423,L
2023-04-11T22:50:46Z,qh2z8vvu,serial-reaction-time,1,P,2,1,26,4132,0,4,330.4000000357628,234,H
2023-04-11T22:50:46Z,qh2z8vvu,serial-reaction-time,NA,R,2,1,27,4132,0,3,387.2000000476837,343,T
2023-04-11T22:50:47Z,qh2z8vvu,serial-reaction-time,1,R,2,0,27,4132,0,3,583.6000000834465,343,T
2023-04-11T22:50:47Z,qh2z8vvu,serial-reaction-time,NA,P,2,1,28,4132,0,1,349.89999997615814,431,H
2023-04-11T22:50:47Z,qh2z8vvu,serial-reaction-time,1,P,2,0,28,4132,0,1,458.39999997615814,431,H
2023-04-11T22:50:48Z,qh2z8vvu,serial-reaction-time,NA,R,2,1,29,4132,0,2,321.89999997615814,312,H
2023-04-11T22:50:48Z,qh2z8vvu,serial-reaction-time,1,R,2,0,29,4132,0,2,476.39999997615814,312,H
2023-04-11T22:50:48Z,qh2z8vvu,serial-reaction-time,1,P,2,1,30,4132,0,3,453.199999988079,123,H
2023-04-11T22:50:49Z,qh2z8vvu,serial-reaction-time,1,R,2,1,31,4132,0,1,336.69999998807907,231,L
2023-04-11T22:50:49Z,qh2z8vvu,serial-reaction-time,1,P,2,1,32,4132,0,2,374.199999988079,312,H
2023-04-11T22:50:50Z,qh2z8vvu,serial-reaction-time,1,R,2,1,33,4132,0,3,350.19999998807907,123,H
2023-04-11T22:50:50Z,qh2z8vvu,serial-reaction-time,1,P,2,1,34,4132,0,4,359.9000000357628,234,H
2023-04-11T22:50:51Z,qh2z8vvu,serial-reaction-time,1,R,2,1,35,4132,0,4,391.10000002384186,344,L
2023-04-11T22:50:51Z,qh2z8vvu,serial-reaction-time,1,P,2,1,36,4132,0,1,301,441,H
2023-04-11T22:50:52Z,qh2z8vvu,serial-reaction-time,1,R,2,1,37,4132,0,3,361,413,L
2023-04-11T22:50:52Z,qh2z8vvu,serial-reaction-time,1,P,2,1,38,4132,0,3,318.69999998807907,133,H
2023-04-11T22:50:53Z,qh2z8vvu,serial-reaction-time,1,R,2,1,39,4132,0,3,355.39999997615814,333,R
2023-04-11T22:50:53Z,qh2z8vvu,serial-reaction-time,1,P,2,1,40,4132,0,2,378.5,332,H
2023-04-11T22:50:54Z,qh2z8vvu,serial-reaction-time,1,R,2,1,41,4132,0,4,493.4000000357628,324,L
2023-04-11T22:50:54Z,qh2z8vvu,serial-reaction-time,1,P,2,1,42,4132,0,4,282.80000001192093,244,H
2023-04-11T22:50:55Z,qh2z8vvu,serial-reaction-time,1,R,2,1,43,4132,0,1,295.60000002384186,441,H
2023-04-11T22:50:55Z,qh2z8vvu,serial-reaction-time,1,P,2,1,44,4132,0,1,291.69999998807907,411,H
2023-04-11T22:50:56Z,qh2z8vvu,serial-reaction-time,1,R,2,1,45,4132,0,2,410,112,L
2023-04-11T22:50:56Z,qh2z8vvu,serial-reaction-time,1,P,2,1,46,4132,0,3,346.19999998807907,123,H
2023-04-11T22:50:56Z,qh2z8vvu,serial-reaction-time,1,R,2,1,47,4132,0,3,302.5,233,L
2023-04-11T22:50:57Z,qh2z8vvu,serial-reaction-time,1,P,2,1,48,4132,0,2,325.19999998807907,332,H
2023-04-11T22:50:57Z,qh2z8vvu,serial-reaction-time,1,R,2,1,49,4132,0,1,399.0999999642372,321,L
2023-04-11T22:50:58Z,qh2z8vvu,serial-reaction-time,1,P,2,1,50,4132,0,4,419.699999988079,214,H
2023-04-11T22:50:58Z,qh2z8vvu,serial-reaction-time,1,R,2,1,51,4132,0,2,375.300000011921,142,L
2023-04-11T22:50:59Z,qh2z8vvu,serial-reaction-time,1,P,2,1,52,4132,0,1,324,421,H
2023-04-11T22:50:59Z,qh2z8vvu,serial-reaction-time,1,R,2,1,53,4132,0,3,387.9000000357628,213,L
2023-04-11T22:51:00Z,qh2z8vvu,serial-reaction-time,1,P,2,1,54,4132,0,3,346.2000000476837,133,H
2023-04-11T22:51:00Z,qh2z8vvu,serial-reaction-time,1,R,2,1,55,4132,0,4,412.2999999523163,334,L
2023-04-11T22:51:01Z,qh2z8vvu,serial-reaction-time,NA,P,2,1,56,4132,0,2,267.89999997615814,342,H
2023-04-11T22:51:01Z,qh2z8vvu,serial-reaction-time,1,P,2,0,56,4132,0,2,468.199999988079,342,H
2023-04-11T22:51:02Z,qh2z8vvu,serial-reaction-time,1,R,2,1,57,4132,0,3,405,423,L
2023-04-11T22:51:02Z,qh2z8vvu,serial-reaction-time,1,P,2,1,58,4132,0,4,410.800000011921,234,H
2023-04-11T22:51:02Z,qh2z8vvu,serial-reaction-time,1,R,2,1,59,4132,0,1,266.69999998807907,341,L
2023-04-11T22:51:03Z,qh2z8vvu,serial-reaction-time,1,P,2,1,60,4132,0,1,403.300000011921,411,H
2023-04-11T22:51:03Z,qh2z8vvu,serial-reaction-time,NA,R,2,1,61,4132,0,2,219.10000002384183,112,L
2023-04-11T22:51:04Z,qh2z8vvu,serial-reaction-time,1,R,2,0,61,4132,0,2,433.50000005960464,112,L
2023-04-11T22:51:04Z,qh2z8vvu,serial-reaction-time,1,P,2,1,62,4132,0,3,351,123,H
2023-04-11T22:51:04Z,qh2z8vvu,serial-reaction-time,1,R,2,1,63,4132,0,4,322.7999999523163,234,H
2023-04-11T22:51:05Z,qh2z8vvu,serial-reaction-time,1,P,2,1,64,4132,0,2,347.0999999642372,342,H
2023-04-11T22:51:05Z,qh2z8vvu,serial-reaction-time,1,R,2,1,65,4132,0,3,401.5,423,L
2023-04-11T22:51:06Z,qh2z8vvu,serial-reaction-time,1,P,2,1,66,4132,0,4,312.5999999642372,234,H
2023-04-11T22:51:06Z,qh2z8vvu,serial-reaction-time,NA,R,2,1,67,4132,0,4,419.800000011921,344,L
2023-04-11T22:51:07Z,qh2z8vvu,serial-reaction-time,1,R,2,0,67,4132,0,4,586.3000000119209,344,L
2023-04-11T22:51:07Z,qh2z8vvu,serial-reaction-time,1,P,2,1,68,4132,0,1,380.39999997615814,441,H
2023-04-11T22:51:08Z,qh2z8vvu,serial-reaction-time,1,R,2,1,69,4132,0,3,346.0999999642372,413,L
2023-04-11T22:51:08Z,qh2z8vvu,serial-reaction-time,1,P,2,1,70,4132,0,3,378,133,H
2023-04-11T22:51:09Z,qh2z8vvu,serial-reaction-time,1,R,2,1,71,4132,0,4,388.39999997615814,334,L
2023-04-11T22:51:09Z,qh2z8vvu,serial-reaction-time,1,P,2,1,72,4132,0,2,282.60000002384186,342,H
2023-04-11T22:51:09Z,qh2z8vvu,serial-reaction-time,1,R,2,1,73,4132,0,3,335.60000002384186,423,L
2023-04-11T22:51:10Z,qh2z8vvu,serial-reaction-time,1,P,2,1,74,4132,0,4,319.5,234,H
2023-04-11T22:51:10Z,qh2z8vvu,serial-reaction-time,1,R,2,1,75,4132,0,3,336,343,T
2023-04-11T22:51:11Z,qh2z8vvu,serial-reaction-time,1,P,2,1,76,4132,0,1,353.5,431,H
2023-04-11T22:51:11Z,qh2z8vvu,serial-reaction-time,1,R,2,1,77,4132,0,3,332.19999998807907,313,T
2023-04-11T22:51:12Z,qh2z8vvu,serial-reaction-time,1,P,2,1,78,4132,0,3,417.39999997615814,133,H
2023-04-11T22:51:12Z,qh2z8vvu,serial-reaction-time,1,R,2,1,79,4132,0,1,313.5,331,L
2023-04-11T22:51:13Z,qh2z8vvu,serial-reaction-time,NA,P,2,1,80,4132,0,2,271.30000001192093,312,H
2023-04-11T22:51:13Z,qh2z8vvu,serial-reaction-time,NA,P,2,0,80,4132,0,2,413.10000002384186,312,H
2023-04-11T22:51:13Z,qh2z8vvu,serial-reaction-time,NA,P,2,0,80,4132,0,2,647.1000000238419,312,H
2023-04-11T22:51:13Z,qh2z8vvu,serial-reaction-time,NA,P,2,0,80,4132,0,2,875.9000000357628,312,H
2023-04-11T22:51:13Z,qh2z8vvu,serial-reaction-time,1,P,2,0,80,4132,0,2,967.600000023842,312,H
2023-04-11T22:51:18Z,qh2z8vvu,html-keyboard-response,NA,NA,NA,NA,NA,NA,NA,NA,NA,NA,NA
2023-04-11T22:51:19Z,qh2z8vvu,html-keyboard-response,NA,NA,NA,NA,NA,NA,NA,NA,NA,NA,NA
2023-04-11T22:51:21Z,qh2z8vvu,serial-reaction-time,1,R,3,1,1,4132,0,4,468.10000002384186,4,X
2023-04-11T22:51:21Z,qh2z8vvu,serial-reaction-time,1,P,3,1,2,4132,0,4,481.89999997615814,44,X
2023-04-11T22:51:22Z,qh2z8vvu,serial-reaction-time,NA,R,3,1,3,4132,0,3,398.7999999523163,443,L
2023-04-11T22:51:22Z,qh2z8vvu,serial-reaction-time,1,R,3,0,3,4132,0,3,708.9999999403954,443,L
2023-04-11T22:51:23Z,qh2z8vvu,serial-reaction-time,1,P,3,1,4,4132,0,1,421.7999999523163,431,H
2023-04-11T22:51:23Z,qh2z8vvu,serial-reaction-time,1,R,3,1,5,4132,0,2,425.5999999642372,312,H
2023-04-11T22:51:24Z,qh2z8vvu,serial-reaction-time,1,P,3,1,6,4132,0,3,366.800000011921,123,H
2023-04-11T22:51:24Z,qh2z8vvu,serial-reaction-time,1,R,3,1,7,4132,0,4,424,234,H
2023-04-11T22:51:25Z,qh2z8vvu,serial-reaction-time,1,P,3,1,8,4132,0,2,358,342,H
2023-04-11T22:51:25Z,qh2z8vvu,serial-reaction-time,1,R,3,1,9,4132,0,3,374.199999988079,423,L
2023-04-11T22:51:26Z,qh2z8vvu,serial-reaction-time,1,P,3,1,10,4132,0,4,419.699999988079,234,H
2023-04-11T22:51:26Z,qh2z8vvu,serial-reaction-time,1,R,3,1,11,4132,0,3,367.300000011921,343,T
2023-04-11T22:51:27Z,qh2z8vvu,serial-reaction-time,NA,P,3,1,12,4132,0,1,323.19999998807907,431,H
2023-04-11T22:51:27Z,qh2z8vvu,serial-reaction-time,1,P,3,0,12,4132,0,1,531.1999999880791,431,H
2023-04-11T22:51:27Z,qh2z8vvu,serial-reaction-time,1,R,3,1,13,4132,0,4,393.5,314,L
2023-04-11T22:51:28Z,qh2z8vvu,serial-reaction-time,1,P,3,1,14,4132,0,3,382.60000002384186,143,H
2023-04-11T22:51:28Z,qh2z8vvu,serial-reaction-time,1,R,3,1,15,4132,0,4,354,434,T
2023-04-11T22:51:29Z,qh2z8vvu,serial-reaction-time,1,P,3,1,16,4132,0,2,367.800000011921,342,H
2023-04-11T22:51:29Z,qh2z8vvu,serial-reaction-time,1,R,3,1,17,4132,0,2,343.80000001192093,422,L
2023-04-11T22:51:30Z,qh2z8vvu,serial-reaction-time,1,P,3,1,18,4132,0,4,446.199999988079,224,H
2023-04-11T22:51:30Z,qh2z8vvu,serial-reaction-time,1,R,3,1,19,4132,0,1,259.10000002384186,241,L
2023-04-11T22:51:31Z,qh2z8vvu,serial-reaction-time,1,P,3,1,20,4132,0,1,277,411,H
2023-04-11T22:51:31Z,qh2z8vvu,serial-reaction-time,1,R,3,1,21,4132,0,1,294.4000000357628,111,R
2023-04-11T22:51:32Z,qh2z8vvu,serial-reaction-time,1,P,3,1,22,4132,0,3,415.60000002384186,113,H
2023-04-11T22:51:32Z,qh2z8vvu,serial-reaction-time,1,R,3,1,23,4132,0,1,512,131,T
2023-04-11T22:51:33Z,qh2z8vvu,serial-reaction-time,NA,P,3,1,24,4132,0,2,312.30000001192093,312,H
2023-04-11T22:51:33Z,qh2z8vvu,serial-reaction-time,1,P,3,0,24,4132,0,2,642.0000000596046,312,H
2023-04-11T22:51:34Z,qh2z8vvu,serial-reaction-time,1,R,3,1,25,4132,0,4,418.699999988079,124,L
2023-04-11T22:51:34Z,qh2z8vvu,serial-reaction-time,1,P,3,1,26,4132,0,4,354.4000000357628,244,H
2023-04-11T22:51:35Z,qh2z8vvu,serial-reaction-time,NA,R,3,1,27,4132,0,1,282.89999997615814,441,H
2023-04-11T22:51:35Z,qh2z8vvu,serial-reaction-time,1,R,3,0,27,4132,0,1,514.8999999761581,441,H
2023-04-11T22:51:35Z,qh2z8vvu,serial-reaction-time,1,P,3,1,28,4132,0,1,305.0999999642372,411,H
2023-04-11T22:51:36Z,qh2z8vvu,serial-reaction-time,1,R,3,1,29,4132,0,2,414.199999988079,112,L
2023-04-11T22:51:36Z,qh2z8vvu,serial-reaction-time,1,P,3,1,30,4132,0,3,354.80000001192093,123,H
2023-04-11T22:51:37Z,qh2z8vvu,serial-reaction-time,1,R,3,1,31,4132,0,1,391.89999997615814,231,L
2023-04-11T22:51:37Z,qh2z8vvu,serial-reaction-time,NA,P,3,1,32,4132,0,2,354.10000002384186,312,H
2023-04-11T22:51:38Z,qh2z8vvu,serial-reaction-time,1,P,3,0,32,4132,0,2,596.1999999880791,312,H
2023-04-11T22:51:38Z,qh2z8vvu,serial-reaction-time,NA,R,3,1,33,4132,0,1,381.2000000476837,121,T
2023-04-11T22:51:38Z,qh2z8vvu,serial-reaction-time,1,R,3,0,33,4132,0,1,558.8000000119209,121,T
2023-04-11T22:51:39Z,qh2z8vvu,serial-reaction-time,1,P,3,1,34,4132,0,4,462.89999997615814,214,H
2023-04-11T22:51:39Z,qh2z8vvu,serial-reaction-time,1,R,3,1,35,4132,0,1,420.0999999642372,141,T
2023-04-11T22:51:40Z,qh2z8vvu,serial-reaction-time,1,P,3,1,36,4132,0,1,298.69999998807907,411,H
2023-04-11T22:51:40Z,qh2z8vvu,serial-reaction-time,1,R,3,1,37,4132,0,4,516.8000000119209,114,L
2023-04-11T22:51:41Z,qh2z8vvu,serial-reaction-time,NA,P,3,1,38,4132,0,3,372.5,143,H
2023-04-11T22:51:41Z,qh2z8vvu,serial-reaction-time,1,P,3,0,38,4132,0,3,554.8999999761581,143,H
2023-04-11T22:51:42Z,qh2z8vvu,serial-reaction-time,1,R,3,1,39,4132,0,2,414.10000002384186,432,L
2023-04-11T22:51:42Z,qh2z8vvu,serial-reaction-time,1,P,3,1,40,4132,0,2,332.9000000357628,322,H
2023-04-11T22:51:43Z,qh2z8vvu,serial-reaction-time,1,R,3,1,41,4132,0,3,398.199999988079,223,L
2023-04-11T22:51:43Z,qh2z8vvu,serial-reaction-time,1,P,3,1,42,4132,0,4,657.3000000119209,234,H
2023-04-11T22:51:44Z,qh2z8vvu,serial-reaction-time,1,R,3,1,43,4132,0,1,360,341,L
2023-04-11T22:51:44Z,qh2z8vvu,serial-reaction-time,1,P,3,1,44,4132,0,1,293.5999999642372,411,H
2023-04-11T22:51:45Z,qh2z8vvu,serial-reaction-time,1,R,3,1,45,4132,0,1,323.5,111,R
2023-04-11T22:51:45Z,qh2z8vvu,serial-reaction-time,1,P,3,1,46,4132,0,3,390.10000002384186,113,H
2023-04-11T22:51:46Z,qh2z8vvu,serial-reaction-time,1,R,3,1,47,4132,0,3,325.69999998807907,133,H
2023-04-11T22:51:46Z,qh2z8vvu,serial-reaction-time,1,P,3,1,48,4132,0,2,410.5,332,H
2023-04-11T22:51:47Z,qh2z8vvu,serial-reaction-time,1,R,3,1,49,4132,0,4,465.800000011921,324,L
2023-04-11T22:51:47Z,qh2z8vvu,serial-reaction-time,1,P,3,1,50,4132,0,4,328.0999999642372,244,H
2023-04-11T22:51:48Z,qh2z8vvu,serial-reaction-time,1,R,3,1,51,4132,0,4,377.89999997615814,444,R
2023-04-11T22:51:48Z,qh2z8vvu,serial-reaction-time,1,P,3,1,52,4132,0,1,407.199999988079,441,H
2023-04-11T22:51:49Z,qh2z8vvu,serial-reaction-time,NA,R,3,1,53,4132,0,2,401.89999997615814,412,L
2023-04-11T22:51:49Z,qh2z8vvu,serial-reaction-time,1,R,3,0,53,4132,0,2,688.1999999284744,412,L
2023-04-11T22:51:50Z,qh2z8vvu,serial-reaction-time,1,P,3,1,54,4132,0,3,399.7999999523163,123,H
2023-04-11T22:51:50Z,qh2z8vvu,serial-reaction-time,1,R,3,1,55,4132,0,4,550.5,234,H
2023-04-11T22:51:51Z,qh2z8vvu,serial-reaction-time,1,P,3,1,56,4132,0,2,361.800000011921,342,H
2023-04-11T22:51:51Z,qh2z8vvu,serial-reaction-time,1,R,3,1,57,4132,0,3,452.5,423,L
2023-04-11T22:51:52Z,qh2z8vvu,serial-reaction-time,1,P,3,1,58,4132,0,4,499.39999997615814,234,H
2023-04-11T22:51:53Z,qh2z8vvu,serial-reaction-time,1,R,3,1,59,4132,0,2,431.5,342,H
2023-04-11T22:51:53Z,qh2z8vvu,serial-reaction-time,1,P,3,1,60,4132,0,1,389.0999999642372,421,H
2023-04-11T22:51:54Z,qh2z8vvu,serial-reaction-time,1,R,3,1,61,4132,0,3,400,213,L
2023-04-11T22:51:54Z,qh2z8vvu,serial-reaction-time,1,P,3,1,62,4132,0,3,389.10000002384186,133,H
2023-04-11T22:51:55Z,qh2z8vvu,serial-reaction-time,1,R,3,1,63,4132,0,2,426.39999997615814,332,H
2023-04-11T22:51:55Z,qh2z8vvu,serial-reaction-time,1,P,3,1,64,4132,0,2,350,322,H
2023-04-11T22:51:56Z,qh2z8vvu,serial-reaction-time,1,R,3,1,65,4132,0,2,333.69999998807907,222,R
2023-04-11T22:51:56Z,qh2z8vvu,serial-reaction-time,1,P,3,1,66,4132,0,4,556.1000000238419,224,H
2023-04-11T22:51:57Z,qh2z8vvu,serial-reaction-time,1,R,3,1,67,4132,0,4,365.9000000357628,244,H
2023-04-11T22:51:57Z,qh2z8vvu,serial-reaction-time,1,P,3,1,68,4132,0,1,338.80000001192093,441,H
2023-04-11T22:51:58Z,qh2z8vvu,serial-reaction-time,1,R,3,1,69,4132,0,3,425.199999988079,413,L
2023-04-11T22:51:58Z,qh2z8vvu,serial-reaction-time,1,P,3,1,70,4132,0,3,368.9000000357628,133,H
2023-04-11T22:51:59Z,qh2z8vvu,serial-reaction-time,1,R,3,1,71,4132,0,2,426.5,332,H
2023-04-11T22:51:59Z,qh2z8vvu,serial-reaction-time,1,P,3,1,72,4132,0,2,391.699999988079,322,H
2023-04-11T22:52:00Z,qh2z8vvu,serial-reaction-time,1,R,3,1,73,4132,0,3,357.89999997615814,223,L
2023-04-11T22:52:00Z,qh2z8vvu,serial-reaction-time,1,P,3,1,74,4132,0,4,432.300000011921,234,H
2023-04-11T22:52:01Z,qh2z8vvu,serial-reaction-time,1,R,3,1,75,4132,0,3,448,343,T
2023-04-11T22:52:02Z,qh2z8vvu,serial-reaction-time,1,P,3,1,76,4132,0,1,406.800000011921,431,H
2023-04-11T22:52:02Z,qh2z8vvu,serial-reaction-time,1,R,3,1,77,4132,0,1,303.30000001192093,311,L
2023-04-11T22:52:02Z,qh2z8vvu,serial-reaction-time,1,P,3,1,78,4132,0,3,372.7000000476837,113,H
2023-04-11T22:52:03Z,qh2z8vvu,serial-reaction-time,1,R,3,1,79,4132,0,4,386.699999988079,134,L
2023-04-11T22:52:03Z,qh2z8vvu,serial-reaction-time,1,P,3,1,80,4132,0,2,403,342,H
2023-04-11T22:52:09Z,qh2z8vvu,html-keyboard-response,NA,NA,NA,NA,NA,NA,NA,NA,NA,NA,NA
2023-04-11T22:52:10Z,qh2z8vvu,html-keyboard-response,NA,NA,NA,NA,NA,NA,NA,NA,NA,NA,NA
2023-04-11T22:52:11Z,qh2z8vvu,serial-reaction-time,1,R,4,1,1,4132,0,1,414.60000002384186,1,X
2023-04-11T22:52:12Z,qh2z8vvu,serial-reaction-time,1,P,4,1,2,4132,0,4,400.5,14,X
2023-04-11T22:52:12Z,qh2z8vvu,serial-reaction-time,1,R,4,1,3,4132,0,4,414.89999997615814,144,L
2023-04-11T22:52:13Z,qh2z8vvu,serial-reaction-time,1,P,4,1,4,4132,0,1,384.800000011921,441,H
2023-04-11T22:52:13Z,qh2z8vvu,serial-reaction-time,1,R,4,1,5,4132,0,3,382.60000002384186,413,L
2023-04-11T22:52:14Z,qh2z8vvu,serial-reaction-time,1,P,4,1,6,4132,0,3,344.89999997615814,133,H
2023-04-11T22:52:14Z,qh2z8vvu,serial-reaction-time,1,R,4,1,7,4132,0,3,331.2999999523163,333,R
2023-04-11T22:52:15Z,qh2z8vvu,serial-reaction-time,1,P,4,1,8,4132,0,2,360.19999998807907,332,H
2023-04-11T22:52:15Z,qh2z8vvu,serial-reaction-time,1,R,4,1,9,4132,0,2,290.5,322,H
2023-04-11T22:52:15Z,qh2z8vvu,serial-reaction-time,1,P,4,1,10,4132,0,4,422.300000011921,224,H
2023-04-11T22:52:16Z,qh2z8vvu,serial-reaction-time,1,R,4,1,11,4132,0,2,362.4000000357628,242,T
2023-04-11T22:52:16Z,qh2z8vvu,serial-reaction-time,1,P,4,1,12,4132,0,1,383.5,421,H
2023-04-11T22:52:17Z,qh2z8vvu,serial-reaction-time,1,R,4,1,13,4132,0,4,592.5,214,H
2023-04-11T22:52:18Z,qh2z8vvu,serial-reaction-time,NA,P,4,1,14,4132,0,3,407.89999997615814,143,H
2023-04-11T22:52:18Z,qh2z8vvu,serial-reaction-time,1,P,4,0,14,4132,0,3,551.3999999761581,143,H
2023-04-11T22:52:18Z,qh2z8vvu,serial-reaction-time,1,R,4,1,15,4132,0,2,429.60000002384186,432,L
2023-04-11T22:52:19Z,qh2z8vvu,serial-reaction-time,1,P,4,1,16,4132,0,2,338.69999998807907,322,H
2023-04-11T22:52:19Z,qh2z8vvu,serial-reaction-time,1,R,4,1,17,4132,0,3,443.300000011921,223,L
2023-04-11T22:52:20Z,qh2z8vvu,serial-reaction-time,1,P,4,1,18,4132,0,4,402,234,H
2023-04-11T22:52:21Z,qh2z8vvu,serial-reaction-time,1,R,4,1,19,4132,0,3,381.800000011921,343,T
2023-04-11T22:52:21Z,qh2z8vvu,serial-reaction-time,1,P,4,1,20,4132,0,1,368.89999997615814,431,H
2023-04-11T22:52:21Z,qh2z8vvu,serial-reaction-time,1,R,4,1,21,4132,0,3,317.10000002384186,313,T
2023-04-11T22:52:22Z,qh2z8vvu,serial-reaction-time,1,P,4,1,22,4132,0,3,339.39999997615814,133,H
2023-04-11T22:52:22Z,qh2z8vvu,serial-reaction-time,1,R,4,1,23,4132,0,2,391,332,H
2023-04-11T22:52:23Z,qh2z8vvu,serial-reaction-time,1,P,4,1,24,4132,0,2,337.10000002384186,322,H
2023-04-11T22:52:23Z,qh2z8vvu,serial-reaction-time,1,R,4,1,25,4132,0,1,425,221,L
2023-04-11T22:52:24Z,qh2z8vvu,serial-reaction-time,1,P,4,1,26,4132,0,4,367.10000002384186,214,H
2023-04-11T22:52:24Z,qh2z8vvu,serial-reaction-time,1,R,4,1,27,4132,0,2,332.19999998807907,142,L
2023-04-11T22:52:25Z,qh2z8vvu,serial-reaction-time,1,P,4,1,28,4132,0,1,405.4000000357628,421,H
2023-04-11T22:52:25Z,qh2z8vvu,serial-reaction-time,1,R,4,1,29,4132,0,3,388.699999988079,213,L
2023-04-11T22:52:26Z,qh2z8vvu,serial-reaction-time,1,P,4,1,30,4132,0,3,407.0999999642372,133,H
2023-04-11T22:52:26Z,qh2z8vvu,serial-reaction-time,1,R,4,1,31,4132,0,3,326.2999999523163,333,R
2023-04-11T22:52:27Z,qh2z8vvu,serial-reaction-time,1,P,4,1,32,4132,0,2,336.69999998807907,332,H
2023-04-11T22:52:27Z,qh2z8vvu,serial-reaction-time,1,R,4,1,33,4132,0,3,349.5,323,T
2023-04-11T22:52:28Z,qh2z8vvu,serial-reaction-time,1,P,4,1,34,4132,0,4,410.4000000357628,234,H
2023-04-11T22:52:28Z,qh2z8vvu,serial-reaction-time,1,R,4,1,35,4132,0,2,325,342,H
2023-04-11T22:52:29Z,qh2z8vvu,serial-reaction-time,1,P,4,1,36,4132,0,1,334.0999999642372,421,H
2023-04-11T22:52:29Z,qh2z8vvu,serial-reaction-time,1,R,4,1,37,4132,0,2,425.300000011921,212,T
2023-04-11T22:52:30Z,qh2z8vvu,serial-reaction-time,1,P,4,1,38,4132,0,3,348.4000000357628,123,H
2023-04-11T22:52:30Z,qh2z8vvu,serial-reaction-time,1,R,4,1,39,4132,0,4,336.5999999642372,234,H
2023-04-11T22:52:31Z,qh2z8vvu,serial-reaction-time,1,P,4,1,40,4132,0,2,315.69999998807907,342,H
2023-04-11T22:52:31Z,qh2z8vvu,serial-reaction-time,1,R,4,1,41,4132,0,2,339.30000001192093,422,L
2023-04-11T22:52:32Z,qh2z8vvu,serial-reaction-time,1,P,4,1,42,4132,0,4,356.89999997615814,224,H
2023-04-11T22:52:32Z,qh2z8vvu,serial-reaction-time,1,R,4,1,43,4132,0,3,359,243,L
2023-04-11T22:52:33Z,qh2z8vvu,serial-reaction-time,1,P,4,1,44,4132,0,1,401.4000000357628,431,H
2023-04-11T22:52:33Z,qh2z8vvu,serial-reaction-time,1,R,4,1,45,4132,0,3,316.19999998807907,313,T
2023-04-11T22:52:34Z,qh2z8vvu,serial-reaction-time,1,P,4,1,46,4132,0,3,376,133,H
2023-04-11T22:52:34Z,qh2z8vvu,serial-reaction-time,1,R,4,1,47,4132,0,3,364.5,333,R
2023-04-11T22:52:35Z,qh2z8vvu,serial-reaction-time,1,P,4,1,48,4132,0,2,403.2000000476837,332,H
2023-04-11T22:52:35Z,qh2z8vvu,serial-reaction-time,1,R,4,1,49,4132,0,1,450.699999988079,321,L
2023-04-11T22:52:36Z,qh2z8vvu,serial-reaction-time,1,P,4,1,50,4132,0,4,437.199999988079,214,H
2023-04-11T22:52:36Z,qh2z8vvu,serial-reaction-time,1,R,4,1,51,4132,0,2,403.9000000357628,142,L
2023-04-11T22:52:37Z,qh2z8vvu,serial-reaction-time,1,P,4,1,52,4132,0,1,477.4000000357628,421,H
2023-04-11T22:52:37Z,qh2z8vvu,serial-reaction-time,1,R,4,1,53,4132,0,1,379.199999988079,211,L
2023-04-11T22:52:38Z,qh2z8vvu,serial-reaction-time,1,P,4,1,54,4132,0,3,332.10000002384186,113,H
2023-04-11T22:52:38Z,qh2z8vvu,serial-reaction-time,NA,R,4,1,55,4132,0,2,361,132,L
2023-04-11T22:52:39Z,qh2z8vvu,serial-reaction-time,1,R,4,0,55,4132,0,2,701.5999999642372,132,L
2023-04-11T22:52:39Z,qh2z8vvu,serial-reaction-time,1,P,4,1,56,4132,0,2,376.10000002384186,322,H
2023-04-11T22:52:40Z,qh2z8vvu,serial-reaction-time,1,R,4,1,57,4132,0,4,411.800000011921,224,H
2023-04-11T22:52:40Z,qh2z8vvu,serial-reaction-time,1,P,4,1,58,4132,0,4,410.2999999523163,244,H
2023-04-11T22:52:41Z,qh2z8vvu,serial-reaction-time,1,R,4,1,59,4132,0,2,385.89999997615814,442,L
2023-04-11T22:52:41Z,qh2z8vvu,serial-reaction-time,1,P,4,1,60,4132,0,1,411,421,H
2023-04-11T22:52:42Z,qh2z8vvu,serial-reaction-time,1,R,4,1,61,4132,0,1,407.300000011921,211,L
2023-04-11T22:52:42Z,qh2z8vvu,serial-reaction-time,1,P,4,1,62,4132,0,3,391.699999988079,113,H
2023-04-11T22:52:43Z,qh2z8vvu,serial-reaction-time,NA,R,4,1,63,4132,0,1,377.300000011921,131,T
2023-04-11T22:52:43Z,qh2z8vvu,serial-reaction-time,1,R,4,0,63,4132,0,1,435.800000011921,131,T
2023-04-11T22:52:44Z,qh2z8vvu,serial-reaction-time,1,P,4,1,64,4132,0,2,495.800000011921,312,H
2023-04-11T22:52:44Z,qh2z8vvu,serial-reaction-time,1,R,4,1,65,4132,0,3,440.800000011921,123,H
2023-04-11T22:52:45Z,qh2z8vvu,serial-reaction-time,1,P,4,1,66,4132,0,4,347.30000001192093,234,H
2023-04-11T22:52:45Z,qh2z8vvu,serial-reaction-time,1,R,4,1,67,4132,0,4,383.4000000357628,344,L
2023-04-11T22:52:46Z,qh2z8vvu,serial-reaction-time,1,P,4,1,68,4132,0,1,396.0999999642372,441,H
2023-04-11T22:52:46Z,qh2z8vvu,serial-reaction-time,1,R,4,1,69,4132,0,1,364.60000002384186,411,H
2023-04-11T22:52:47Z,qh2z8vvu,serial-reaction-time,1,P,4,1,70,4132,0,3,401.699999988079,113,H
2023-04-11T22:52:47Z,qh2z8vvu,serial-reaction-time,1,R,4,1,71,4132,0,3,351.39999997615814,133,H
2023-04-11T22:52:48Z,qh2z8vvu,serial-reaction-time,1,P,4,1,72,4132,0,2,348.19999998807907,332,H
2023-04-11T22:52:48Z,qh2z8vvu,serial-reaction-time,1,R,4,1,73,4132,0,2,342.89999997615814,322,H
2023-04-11T22:52:49Z,qh2z8vvu,serial-reaction-time,1,P,4,1,74,4132,0,4,386.199999988079,224,H
2023-04-11T22:52:49Z,qh2z8vvu,serial-reaction-time,1,R,4,1,75,4132,0,3,604.3999999761581,243,L
2023-04-11T22:52:50Z,qh2z8vvu,serial-reaction-time,NA,P,4,1,76,4132,0,1,392.5,431,H
2023-04-11T22:52:50Z,qh2z8vvu,serial-reaction-time,1,P,4,0,76,4132,0,1,751.3000000119209,431,H
2023-04-11T22:52:51Z,qh2z8vvu,serial-reaction-time,1,R,4,1,77,4132,0,1,413.800000011921,311,L
2023-04-11T22:52:51Z,qh2z8vvu,serial-reaction-time,1,P,4,1,78,4132,0,3,466.60000002384186,113,H
2023-04-11T22:52:52Z,qh2z8vvu,serial-reaction-time,1,R,4,1,79,4132,0,4,357.19999998807907,134,L
2023-04-11T22:52:53Z,qh2z8vvu,serial-reaction-time,1,P,4,1,80,4132,0,2,1081.100000023842,342,H
2023-04-11T22:52:58Z,qh2z8vvu,html-keyboard-response,NA,NA,NA,NA,NA,NA,NA,NA,NA,NA,NA
2023-04-11T22:52:59Z,qh2z8vvu,html-keyboard-response,NA,NA,NA,NA,NA,NA,NA,NA,NA,NA,NA
2023-04-11T22:53:00Z,qh2z8vvu,serial-reaction-time,1,R,5,1,1,4132,0,4,440.2000000476837,4,X
2023-04-11T22:53:01Z,qh2z8vvu,serial-reaction-time,1,P,5,1,2,4132,0,4,409.39999997615814,44,X
2023-04-11T22:53:01Z,qh2z8vvu,serial-reaction-time,1,R,5,1,3,4132,0,4,316.5,444,R
2023-04-11T22:53:02Z,qh2z8vvu,serial-reaction-time,1,P,5,1,4,4132,0,1,367.39999997615814,441,H
2023-04-11T22:53:02Z,qh2z8vvu,serial-reaction-time,NA,R,5,1,5,4132,0,3,256.5,413,L
2023-04-11T22:53:02Z,qh2z8vvu,serial-reaction-time,1,R,5,0,5,4132,0,3,385.199999988079,413,L
2023-04-11T22:53:03Z,qh2z8vvu,serial-reaction-time,1,P,5,1,6,4132,0,3,332.39999997615814,133,H
2023-04-11T22:53:03Z,qh2z8vvu,serial-reaction-time,1,R,5,1,7,4132,0,3,302.80000001192093,333,R
2023-04-11T22:53:03Z,qh2z8vvu,serial-reaction-time,1,P,5,1,8,4132,0,2,322.80000001192093,332,H
2023-04-11T22:53:04Z,qh2z8vvu,serial-reaction-time,1,R,5,1,9,4132,0,3,355.80000001192093,323,T
2023-04-11T22:53:05Z,qh2z8vvu,serial-reaction-time,1,P,5,1,10,4132,0,4,606,234,H
2023-04-11T22:53:05Z,qh2z8vvu,serial-reaction-time,1,R,5,1,11,4132,0,4,350.39999997615814,344,L
2023-04-11T22:53:06Z,qh2z8vvu,serial-reaction-time,1,P,5,1,12,4132,0,1,432.89999997615814,441,H
2023-04-11T22:53:06Z,qh2z8vvu,serial-reaction-time,1,R,5,1,13,4132,0,1,231,411,H
2023-04-11T22:53:07Z,qh2z8vvu,serial-reaction-time,1,P,5,1,14,4132,0,3,353.89999997615814,113,H
2023-04-11T22:53:07Z,qh2z8vvu,serial-reaction-time,1,R,5,1,15,4132,0,2,335.5,132,L
2023-04-11T22:53:07Z,qh2z8vvu,serial-reaction-time,NA,P,5,1,16,4132,0,2,315.10000002384186,322,H
2023-04-11T22:53:08Z,qh2z8vvu,serial-reaction-time,1,P,5,0,16,4132,0,2,518.6999999880791,322,H
2023-04-11T22:53:08Z,qh2z8vvu,serial-reaction-time,1,R,5,1,17,4132,0,4,440.9000000357628,224,H
2023-04-11T22:53:09Z,qh2z8vvu,serial-reaction-time,1,P,5,1,18,4132,0,4,340.10000002384186,244,H
2023-04-11T22:53:09Z,qh2z8vvu,serial-reaction-time,1,R,5,1,19,4132,0,3,421.199999988079,443,L
2023-04-11T22:53:10Z,qh2z8vvu,serial-reaction-time,NA,P,5,1,20,4132,0,1,284.10000002384186,431,H
2023-04-11T22:53:10Z,qh2z8vvu,serial-reaction-time,1,P,5,0,20,4132,0,1,499.7000000476837,431,H
2023-04-11T22:53:10Z,qh2z8vvu,serial-reaction-time,1,R,5,1,21,4132,0,3,378.2000000476837,313,T
2023-04-11T22:53:11Z,qh2z8vvu,serial-reaction-time,1,P,5,1,22,4132,0,3,349.80000001192093,133,H
2023-04-11T22:53:11Z,qh2z8vvu,serial-reaction-time,1,R,5,1,23,4132,0,4,423.0999999642372,334,L
2023-04-11T22:53:12Z,qh2z8vvu,serial-reaction-time,1,P,5,1,24,4132,0,2,346.39999997615814,342,H
2023-04-11T22:53:12Z,qh2z8vvu,serial-reaction-time,1,R,5,1,25,4132,0,3,410.5999999642372,423,L
2023-04-11T22:53:13Z,qh2z8vvu,serial-reaction-time,1,P,5,1,26,4132,0,4,379.5,234,H
2023-04-11T22:53:13Z,qh2z8vvu,serial-reaction-time,1,R,5,1,27,4132,0,2,372.5,342,H
2023-04-11T22:53:14Z,qh2z8vvu,serial-reaction-time,1,P,5,1,28,4132,0,1,310.60000002384186,421,H
2023-04-11T22:53:14Z,qh2z8vvu,serial-reaction-time,1,R,5,1,29,4132,0,3,374.300000011921,213,L
2023-04-11T22:53:15Z,qh2z8vvu,serial-reaction-time,NA,P,5,1,30,4132,0,3,288.4000000357628,133,H
2023-04-11T22:53:15Z,qh2z8vvu,serial-reaction-time,1,P,5,0,30,4132,0,3,524.4000000357628,133,H
2023-04-11T22:53:16Z,qh2z8vvu,serial-reaction-time,1,R,5,1,31,4132,0,1,378.10000002384186,331,L
2023-04-11T22:53:16Z,qh2z8vvu,serial-reaction-time,NA,P,5,1,32,4132,0,2,464.199999988079,312,H
2023-04-11T22:53:16Z,qh2z8vvu,serial-reaction-time,1,P,5,0,32,4132,0,2,536.4000000357628,312,H
2023-04-11T22:53:17Z,qh2z8vvu,serial-reaction-time,1,R,5,1,33,4132,0,2,365.699999988079,122,L
2023-04-11T22:53:17Z,qh2z8vvu,serial-reaction-time,1,P,5,1,34,4132,0,4,365.89999997615814,224,H
2023-04-11T22:53:18Z,qh2z8vvu,serial-reaction-time,1,R,5,1,35,4132,0,1,380.300000011921,241,L
2023-04-11T22:53:18Z,qh2z8vvu,serial-reaction-time,1,P,5,1,36,4132,0,1,315.5999999642372,411,H
2023-04-11T22:53:19Z,qh2z8vvu,serial-reaction-time,1,R,5,1,37,4132,0,1,333.69999998807907,111,R
2023-04-11T22:53:19Z,qh2z8vvu,serial-reaction-time,1,P,5,1,38,4132,0,3,370,113,H
2023-04-11T22:53:20Z,qh2z8vvu,serial-reaction-time,1,R,5,1,39,4132,0,2,298.5,132,L
2023-04-11T22:53:20Z,qh2z8vvu,serial-reaction-time,NA,P,5,1,40,4132,0,2,316.30000001192093,322,H
2023-04-11T22:53:20Z,qh2z8vvu,serial-reaction-time,1,P,5,0,40,4132,0,2,639,322,H
2023-04-11T22:53:21Z,qh2z8vvu,serial-reaction-time,1,R,5,1,41,4132,0,4,418.5,224,H
2023-04-11T22:53:21Z,qh2z8vvu,serial-reaction-time,1,P,5,1,42,4132,0,4,313.39999997615814,244,H
2023-04-11T22:53:22Z,qh2z8vvu,serial-reaction-time,1,R,5,1,43,4132,0,1,282.19999998807907,441,H
2023-04-11T22:53:22Z,qh2z8vvu,serial-reaction-time,1,P,5,1,44,4132,0,1,334.5,411,H
2023-04-11T22:53:23Z,qh2z8vvu,serial-reaction-time,1,R,5,1,45,4132,0,2,389.5999999642372,112,L
2023-04-11T22:53:23Z,qh2z8vvu,serial-reaction-time,1,P,5,1,46,4132,0,3,342.30000001192093,123,H
2023-04-11T22:53:24Z,qh2z8vvu,serial-reaction-time,1,R,5,1,47,4132,0,4,324.19999998807907,234,H
2023-04-11T22:53:24Z,qh2z8vvu,serial-reaction-time,1,P,5,1,48,4132,0,2,400,342,H
2023-04-11T22:53:25Z,qh2z8vvu,serial-reaction-time,1,R,5,1,49,4132,0,4,502.800000011921,424,T
2023-04-11T22:53:25Z,qh2z8vvu,serial-reaction-time,1,P,5,1,50,4132,0,4,400.39999997615814,244,H
2023-04-11T22:53:26Z,qh2z8vvu,serial-reaction-time,1,R,5,1,51,4132,0,4,351.69999998807907,444,R
2023-04-11T22:53:26Z,qh2z8vvu,serial-reaction-time,1,P,5,1,52,4132,0,1,365.10000002384186,441,H
2023-04-11T22:53:27Z,qh2z8vvu,serial-reaction-time,1,R,5,1,53,4132,0,3,581.3999999761581,413,L
2023-04-11T22:53:27Z,qh2z8vvu,serial-reaction-time,1,P,5,1,54,4132,0,3,363.199999988079,133,H
2023-04-11T22:53:28Z,qh2z8vvu,serial-reaction-time,1,R,5,1,55,4132,0,2,381.699999988079,332,H
2023-04-11T22:53:28Z,qh2z8vvu,serial-reaction-time,1,P,5,1,56,4132,0,2,337.4000000357628,322,H
2023-04-11T22:53:29Z,qh2z8vvu,serial-reaction-time,1,R,5,1,57,4132,0,2,325.89999997615814,222,R
2023-04-11T22:53:29Z,qh2z8vvu,serial-reaction-time,1,P,5,1,58,4132,0,4,376.699999988079,224,H
2023-04-11T22:53:30Z,qh2z8vvu,serial-reaction-time,NA,R,5,1,59,4132,0,1,319.19999998807907,241,L
2023-04-11T22:53:30Z,qh2z8vvu,serial-reaction-time,1,R,5,0,59,4132,0,1,548.6999999880791,241,L
2023-04-11T22:53:30Z,qh2z8vvu,serial-reaction-time,1,P,5,1,60,4132,0,1,296.89999997615814,411,H
2023-04-11T22:53:31Z,qh2z8vvu,serial-reaction-time,1,R,5,1,61,4132,0,1,252.5,111,R
2023-04-11T22:53:31Z,qh2z8vvu,serial-reaction-time,1,P,5,1,62,4132,0,3,365.89999997615814,113,H
2023-04-11T22:53:32Z,qh2z8vvu,serial-reaction-time,1,R,5,1,63,4132,0,2,343.39999997615814,132,L
2023-04-11T22:53:32Z,qh2z8vvu,serial-reaction-time,1,P,5,1,64,4132,0,2,335.39999997615814,322,H
2023-04-11T22:53:33Z,qh2z8vvu,serial-reaction-time,1,R,5,1,65,4132,0,3,391.800000011921,223,L
2023-04-11T22:53:33Z,qh2z8vvu,serial-reaction-time,1,P,5,1,66,4132,0,4,436.5,234,H
2023-04-11T22:53:34Z,qh2z8vvu,serial-reaction-time,NA,R,5,1,67,4132,0,2,247.5,342,H
2023-04-11T22:53:34Z,qh2z8vvu,serial-reaction-time,1,R,5,0,67,4132,0,2,627.5999999642372,342,H
2023-04-11T22:53:35Z,qh2z8vvu,serial-reaction-time,NA,P,5,1,68,4132,0,1,294.30000001192093,421,H
2023-04-11T22:53:35Z,qh2z8vvu,serial-reaction-time,1,P,5,0,68,4132,0,1,371.10000002384186,421,H
2023-04-11T22:53:35Z,qh2z8vvu,serial-reaction-time,1,R,5,1,69,4132,0,4,507.5,214,H
2023-04-11T22:53:36Z,qh2z8vvu,serial-reaction-time,1,P,5,1,70,4132,0,3,423.5,143,H
2023-04-11T22:53:36Z,qh2z8vvu,serial-reaction-time,1,R,5,1,71,4132,0,1,359.60000002384186,431,H
2023-04-11T22:53:37Z,qh2z8vvu,serial-reaction-time,1,P,5,1,72,4132,0,2,503.800000011921,312,H
2023-04-11T22:53:37Z,qh2z8vvu,serial-reaction-time,1,R,5,1,73,4132,0,4,405.800000011921,124,L
2023-04-11T22:53:38Z,qh2z8vvu,serial-reaction-time,1,P,5,1,74,4132,0,4,421.9000000357628,244,H
2023-04-11T22:53:38Z,qh2z8vvu,serial-reaction-time,1,R,5,1,75,4132,0,2,340.9000000357628,442,L
2023-04-11T22:53:39Z,qh2z8vvu,serial-reaction-time,1,P,5,1,76,4132,0,1,400.39999997615814,421,H
2023-04-11T22:53:39Z,qh2z8vvu,serial-reaction-time,1,R,5,1,77,4132,0,2,408,212,T
2023-04-11T22:53:40Z,qh2z8vvu,serial-reaction-time,1,P,5,1,78,4132,0,3,336.2999999523163,123,H
2023-04-11T22:53:40Z,qh2z8vvu,serial-reaction-time,1,R,5,1,79,4132,0,3,421.5,233,L
2023-04-11T22:53:41Z,qh2z8vvu,serial-reaction-time,1,P,5,1,80,4132,0,2,371.300000011921,332,H
2023-04-11T22:53:46Z,qh2z8vvu,html-keyboard-response,NA,NA,NA,NA,NA,NA,NA,NA,NA,NA,NA
2023-04-11T22:53:48Z,qh2z8vvu,html-keyboard-response,NA,NA,NA,NA,NA,NA,NA,NA,NA,NA,NA
2023-04-11T22:53:49Z,qh2z8vvu,fullscreen,NA,NA,NA,NA,NA,NA,NA,NA,NA,NA,NA
2023-04-12T14:58:21Z,tlzx847n,fullscreen,NA,NA,NA,NA,NA,NA,NA,NA,NA,NA,NA
2023-04-12T14:58:24Z,tlzx847n,html-keyboard-response,NA,NA,NA,NA,NA,NA,NA,NA,NA,NA,NA
2023-04-12T14:58:26Z,tlzx847n,serial-reaction-time,1,R,1,1,1,1324,0,2,724.1000001430511,2,X
2023-04-12T14:58:27Z,tlzx847n,serial-reaction-time,1,P,1,1,2,1324,0,1,378.69999980926514,21,X
2023-04-12T14:58:27Z,tlzx847n,serial-reaction-time,1,R,1,1,3,1324,0,4,478.40000009536743,214,H
2023-04-12T14:58:28Z,tlzx847n,serial-reaction-time,1,P,1,1,4,1324,0,3,379.39999985694885,143,H
2023-04-12T14:58:28Z,tlzx847n,serial-reaction-time,1,R,1,1,5,1324,0,1,433.39999985694885,431,H
2023-04-12T14:58:29Z,tlzx847n,serial-reaction-time,NA,P,1,1,6,1324,0,2,343.7999999523163,312,H
2023-04-12T14:58:29Z,tlzx847n,serial-reaction-time,1,P,1,0,6,1324,0,2,593.9000000953674,312,H
2023-04-12T14:58:29Z,tlzx847n,serial-reaction-time,1,R,1,1,7,1324,0,2,331.59999990463257,122,L
2023-04-12T14:58:30Z,tlzx847n,serial-reaction-time,1,P,1,1,8,1324,0,4,480.09999990463257,224,H
2023-04-12T14:58:33Z,tlzx847n,serial-reaction-time,1,R,1,1,9,1324,0,1,2759.800000190735,241,L
2023-04-12T14:58:33Z,tlzx847n,serial-reaction-time,1,P,1,1,10,1324,0,1,323.39999985694885,411,H
2023-04-12T14:58:34Z,tlzx847n,serial-reaction-time,1,R,1,1,11,1324,0,2,391.2999999523163,112,L
2023-04-12T14:58:34Z,tlzx847n,serial-reaction-time,1,P,1,1,12,1324,0,3,323.7999999523163,123,H
2023-04-12T14:58:35Z,tlzx847n,serial-reaction-time,1,R,1,1,13,1324,0,3,323.60000014305115,233,L
2023-04-12T14:58:35Z,tlzx847n,serial-reaction-time,1,P,1,1,14,1324,0,2,332.7000000476837,332,H
2023-04-12T14:58:36Z,tlzx847n,serial-reaction-time,NA,R,1,1,15,1324,0,4,370.60000014305115,324,L
2023-04-12T14:58:36Z,tlzx847n,serial-reaction-time,1,R,1,0,15,1324,0,4,615.4000000953674,324,L
2023-04-12T14:58:37Z,tlzx847n,serial-reaction-time,1,P,1,1,16,1324,0,4,359.19999980926514,244,H
2023-04-12T14:58:37Z,tlzx847n,serial-reaction-time,1,R,1,1,17,1324,0,1,370.5,441,H
2023-04-12T14:58:38Z,tlzx847n,serial-reaction-time,1,P,1,1,18,1324,0,1,278.7999999523163,411,H
2023-04-12T14:58:38Z,tlzx847n,serial-reaction-time,1,R,1,1,19,1324,0,2,356.10000014305115,112,L
2023-04-12T14:58:39Z,tlzx847n,serial-reaction-time,1,P,1,1,20,1324,0,3,509.2999999523163,123,H
2023-04-12T14:58:39Z,tlzx847n,serial-reaction-time,1,R,1,1,21,1324,0,1,513.2999999523163,231,L
2023-04-12T14:58:41Z,tlzx847n,serial-reaction-time,1,P,1,1,22,1324,0,2,1098.1000001430511,312,H
2023-04-12T14:58:41Z,tlzx847n,serial-reaction-time,1,R,1,1,23,1324,0,3,530.3999998569489,123,H
2023-04-12T14:58:42Z,tlzx847n,serial-reaction-time,1,P,1,1,24,1324,0,4,275.40000009536743,234,H
2023-04-12T14:58:42Z,tlzx847n,serial-reaction-time,1,R,1,1,25,1324,0,2,320.89999985694885,342,H
2023-04-12T14:58:42Z,tlzx847n,serial-reaction-time,1,P,1,1,26,1324,0,1,319.30000019073486,421,H
2023-04-12T14:58:43Z,tlzx847n,serial-reaction-time,1,R,1,1,27,1324,0,1,390,211,L
2023-04-12T14:58:44Z,tlzx847n,serial-reaction-time,1,P,1,1,28,1324,0,3,522.4000000953674,113,H
2023-04-12T14:58:44Z,tlzx847n,serial-reaction-time,1,R,1,1,29,1324,0,3,339.2000000476837,133,H
2023-04-12T14:58:45Z,tlzx847n,serial-reaction-time,1,P,1,1,30,1324,0,2,339.59999990463257,332,H
2023-04-12T14:58:45Z,tlzx847n,serial-reaction-time,1,R,1,1,31,1324,0,1,299,321,L
2023-04-12T14:58:46Z,tlzx847n,serial-reaction-time,1,P,1,1,32,1324,0,4,410.2999999523163,214,H
2023-04-12T14:58:46Z,tlzx847n,serial-reaction-time,1,R,1,1,33,1324,0,2,530.9000000953674,142,L
2023-04-12T14:58:47Z,tlzx847n,serial-reaction-time,1,P,1,1,34,1324,0,1,425.7000000476837,421,H
2023-04-12T14:58:47Z,tlzx847n,serial-reaction-time,1,R,1,1,35,1324,0,3,341.59999990463257,213,L
2023-04-12T14:58:48Z,tlzx847n,serial-reaction-time,1,P,1,1,36,1324,0,3,347.2000000476837,133,H
2023-04-12T14:58:48Z,tlzx847n,serial-reaction-time,1,R,1,1,37,1324,0,4,338,334,L
2023-04-12T14:58:49Z,tlzx847n,serial-reaction-time,1,P,1,1,38,1324,0,2,426.19999980926514,342,H
2023-04-12T14:58:49Z,tlzx847n,serial-reaction-time,1,R,1,1,39,1324,0,4,337.7000000476837,424,T
2023-04-12T14:58:50Z,tlzx847n,serial-reaction-time,1,P,1,1,40,1324,0,4,409.5,244,H
2023-04-12T14:58:50Z,tlzx847n,serial-reaction-time,NA,R,1,1,41,1324,0,3,326,443,L
2023-04-12T14:58:51Z,tlzx847n,serial-reaction-time,1,R,1,0,41,1324,0,3,566.7999999523163,443,L
2023-04-12T14:58:51Z,tlzx847n,serial-reaction-time,1,P,1,1,42,1324,0,1,354.30000019073486,431,H
2023-04-12T14:58:52Z,tlzx847n,serial-reaction-time,1,R,1,1,43,1324,0,3,346.40000009536743,313,T
2023-04-12T14:58:52Z,tlzx847n,serial-reaction-time,1,P,1,1,44,1324,0,3,293.2000000476837,133,H
2023-04-12T14:58:52Z,tlzx847n,serial-reaction-time,1,R,1,1,45,1324,0,3,305.2000000476837,333,R
2023-04-12T14:58:53Z,tlzx847n,serial-reaction-time,NA,P,1,1,46,1324,0,2,393.09999990463257,332,H
2023-04-12T14:58:53Z,tlzx847n,serial-reaction-time,1,P,1,0,46,1324,0,2,693.3999998569489,332,H
2023-04-12T14:58:54Z,tlzx847n,serial-reaction-time,1,R,1,1,47,1324,0,3,419.5,323,T
2023-04-12T14:58:54Z,tlzx847n,serial-reaction-time,1,P,1,1,48,1324,0,4,403.40000009536743,234,H
2023-04-12T14:58:55Z,tlzx847n,serial-reaction-time,1,R,1,1,49,1324,0,2,499.39999985694885,342,H
2023-04-12T14:58:56Z,tlzx847n,serial-reaction-time,1,P,1,1,50,1324,0,1,454.89999985694885,421,H
2023-04-12T14:58:56Z,tlzx847n,serial-reaction-time,1,R,1,1,51,1324,0,2,346.2999999523163,212,T
2023-04-12T14:58:57Z,tlzx847n,serial-reaction-time,1,P,1,1,52,1324,0,3,592.3000001907349,123,H
2023-04-12T14:58:57Z,tlzx847n,serial-reaction-time,1,R,1,1,53,1324,0,2,428.2999999523163,232,T
2023-04-12T14:58:58Z,tlzx847n,serial-reaction-time,1,P,1,1,54,1324,0,2,303.90000009536743,322,H
2023-04-12T14:58:58Z,tlzx847n,serial-reaction-time,1,R,1,1,55,1324,0,2,312.59999990463257,222,R
2023-04-12T14:58:59Z,tlzx847n,serial-reaction-time,1,P,1,1,56,1324,0,4,329.2000000476837,224,H
2023-04-12T14:58:59Z,tlzx847n,serial-reaction-time,1,R,1,1,57,1324,0,4,241,244,H
2023-04-12T14:59:00Z,tlzx847n,serial-reaction-time,1,P,1,1,58,1324,0,1,338.30000019073486,441,H
2023-04-12T14:59:00Z,tlzx847n,serial-reaction-time,NA,R,1,1,59,1324,0,3,570.9000000953674,413,L
2023-04-12T14:59:01Z,tlzx847n,serial-reaction-time,1,R,1,0,59,1324,0,3,780.2000000476837,413,L
2023-04-12T14:59:01Z,tlzx847n,serial-reaction-time,1,P,1,1,60,1324,0,3,334.10000014305115,133,H
2023-04-12T14:59:02Z,tlzx847n,serial-reaction-time,1,R,1,1,61,1324,0,4,393.7000000476837,334,L
2023-04-12T14:59:02Z,tlzx847n,serial-reaction-time,1,P,1,1,62,1324,0,2,361,342,H
2023-04-12T14:59:03Z,tlzx847n,serial-reaction-time,1,R,1,1,63,1324,0,1,408.7000000476837,421,H
2023-04-12T14:59:03Z,tlzx847n,serial-reaction-time,1,P,1,1,64,1324,0,4,362.7999999523163,214,H
2023-04-12T14:59:04Z,tlzx847n,serial-reaction-time,1,R,1,1,65,1324,0,3,316.2999999523163,143,H
2023-04-12T14:59:04Z,tlzx847n,serial-reaction-time,1,P,1,1,66,1324,0,1,358,431,H
2023-04-12T14:59:05Z,tlzx847n,serial-reaction-time,1,R,1,1,67,1324,0,1,732.2999999523163,311,L
2023-04-12T14:59:06Z,tlzx847n,serial-reaction-time,1,P,1,1,68,1324,0,3,819.6999998092651,113,H
2023-04-12T14:59:08Z,tlzx847n,serial-reaction-time,1,R,1,1,69,1324,0,3,1909.7999999523165,133,H
2023-04-12T14:59:08Z,tlzx847n,serial-reaction-time,1,P,1,1,70,1324,0,2,329.7000000476837,332,H
2023-04-12T14:59:09Z,tlzx847n,serial-reaction-time,1,R,1,1,71,1324,0,4,350.89999985694885,324,L
2023-04-12T14:59:09Z,tlzx847n,serial-reaction-time,1,P,1,1,72,1324,0,4,321.7999999523163,244,H
2023-04-12T14:59:10Z,tlzx847n,serial-reaction-time,1,R,1,1,73,1324,0,3,491.7999999523163,443,L
2023-04-12T14:59:11Z,tlzx847n,serial-reaction-time,1,P,1,1,74,1324,0,1,407,431,H
2023-04-12T14:59:11Z,tlzx847n,serial-reaction-time,1,R,1,1,75,1324,0,3,574.2000000476837,313,T
2023-04-12T14:59:12Z,tlzx847n,serial-reaction-time,1,P,1,1,76,1324,0,3,366.09999990463257,133,H
2023-04-12T14:59:12Z,tlzx847n,serial-reaction-time,1,R,1,1,77,1324,0,2,336.89999985694885,332,H
2023-04-12T14:59:13Z,tlzx847n,serial-reaction-time,1,P,1,1,78,1324,0,2,321.2999999523163,322,H
2023-04-12T14:59:13Z,tlzx847n,serial-reaction-time,1,R,1,1,79,1324,0,4,439.59999990463257,224,H
2023-04-12T14:59:14Z,tlzx847n,serial-reaction-time,1,P,1,1,80,1324,0,4,321.60000014305115,244,H
2023-04-12T14:59:19Z,tlzx847n,html-keyboard-response,NA,NA,NA,NA,NA,NA,NA,NA,NA,NA,NA
2023-04-12T14:59:25Z,tlzx847n,html-keyboard-response,NA,NA,NA,NA,NA,NA,NA,NA,NA,NA,NA
2023-04-12T14:59:26Z,tlzx847n,serial-reaction-time,1,R,2,1,1,1324,0,4,483.90000009536743,4,X
2023-04-12T14:59:27Z,tlzx847n,serial-reaction-time,NA,P,2,1,2,1324,0,1,312.7000000476837,41,X
2023-04-12T14:59:27Z,tlzx847n,serial-reaction-time,1,P,2,0,2,1324,0,1,614.5000002384186,41,X
2023-04-12T14:59:27Z,tlzx847n,serial-reaction-time,1,R,2,1,3,1324,0,4,393,414,T
2023-04-12T14:59:28Z,tlzx847n,serial-reaction-time,1,P,2,1,4,1324,0,3,373.30000019073486,143,H
2023-04-12T14:59:28Z,tlzx847n,serial-reaction-time,1,R,2,1,5,1324,0,2,318.90000009536743,432,L
2023-04-12T14:59:29Z,tlzx847n,serial-reaction-time,1,P,2,1,6,1324,0,2,313.40000009536743,322,H
2023-04-12T14:59:29Z,tlzx847n,serial-reaction-time,1,R,2,1,7,1324,0,1,344.5,221,L
2023-04-12T14:59:30Z,tlzx847n,serial-reaction-time,1,P,2,1,8,1324,0,4,332.40000009536743,214,H
2023-04-12T14:59:30Z,tlzx847n,serial-reaction-time,1,R,2,1,9,1324,0,3,545,143,H
2023-04-12T14:59:31Z,tlzx847n,serial-reaction-time,1,P,2,1,10,1324,0,1,438.40000009536743,431,H
2023-04-12T14:59:32Z,tlzx847n,serial-reaction-time,1,R,2,1,11,1324,0,4,394.2999999523163,314,L
2023-04-12T14:59:32Z,tlzx847n,serial-reaction-time,1,P,2,1,12,1324,0,3,392.5,143,H
2023-04-12T14:59:33Z,tlzx847n,serial-reaction-time,1,R,2,1,13,1324,0,4,676.0999999046326,434,T
2023-04-12T14:59:34Z,tlzx847n,serial-reaction-time,1,P,2,1,14,1324,0,2,564.7000000476837,342,H
2023-04-12T14:59:34Z,tlzx847n,serial-reaction-time,1,R,2,1,15,1324,0,4,419.2000000476837,424,T
2023-04-12T14:59:35Z,tlzx847n,serial-reaction-time,1,P,2,1,16,1324,0,4,351.10000014305115,244,H
2023-04-12T14:59:35Z,tlzx847n,serial-reaction-time,1,R,2,1,17,1324,0,2,546,442,L
2023-04-12T14:59:36Z,tlzx847n,serial-reaction-time,1,P,2,1,18,1324,0,1,429.7000000476837,421,H
2023-04-12T14:59:36Z,tlzx847n,serial-reaction-time,1,R,2,1,19,1324,0,4,319.2000000476837,214,H
2023-04-12T14:59:37Z,tlzx847n,serial-reaction-time,1,P,2,1,20,1324,0,3,374,143,H
2023-04-12T14:59:37Z,tlzx847n,serial-reaction-time,1,R,2,1,21,1324,0,1,361.39999985694885,431,H
2023-04-12T14:59:38Z,tlzx847n,serial-reaction-time,1,P,2,1,22,1324,0,2,536.2000000476837,312,H
2023-04-12T14:59:39Z,tlzx847n,serial-reaction-time,1,R,2,1,23,1324,0,2,341.09999990463257,122,L
2023-04-12T14:59:39Z,tlzx847n,serial-reaction-time,1,P,2,1,24,1324,0,4,392.7000000476837,224,H
2023-04-12T14:59:40Z,tlzx847n,serial-reaction-time,1,R,2,1,25,1324,0,2,543.1999998092651,242,T
2023-04-12T14:59:40Z,tlzx847n,serial-reaction-time,1,P,2,1,26,1324,0,1,380.69999980926514,421,H
2023-04-12T14:59:41Z,tlzx847n,serial-reaction-time,1,R,2,1,27,1324,0,2,390.09999990463257,212,T
2023-04-12T14:59:41Z,tlzx847n,serial-reaction-time,1,P,2,1,28,1324,0,3,413.60000014305115,123,H
2023-04-12T14:59:42Z,tlzx847n,serial-reaction-time,1,R,2,1,29,1324,0,2,558.2000000476837,232,T
2023-04-12T14:59:43Z,tlzx847n,serial-reaction-time,1,P,2,1,30,1324,0,2,336.40000009536743,322,H
2023-04-12T14:59:43Z,tlzx847n,serial-reaction-time,1,R,2,1,31,1324,0,4,469.60000014305115,224,H
2023-04-12T14:59:44Z,tlzx847n,serial-reaction-time,1,P,2,1,32,1324,0,4,361.09999990463257,244,H
2023-04-12T14:59:44Z,tlzx847n,serial-reaction-time,1,R,2,1,33,1324,0,3,509.60000014305115,443,L
2023-04-12T14:59:45Z,tlzx847n,serial-reaction-time,1,P,2,1,34,1324,0,1,413.40000009536743,431,H
2023-04-12T14:59:45Z,tlzx847n,serial-reaction-time,1,R,2,1,35,1324,0,2,470.90000009536743,312,H
2023-04-12T14:59:46Z,tlzx847n,serial-reaction-time,NA,P,2,1,36,1324,0,3,414.89999985694885,123,H
2023-04-12T14:59:46Z,tlzx847n,serial-reaction-time,1,P,2,0,36,1324,0,3,715.7999999523163,123,H
2023-04-12T14:59:47Z,tlzx847n,serial-reaction-time,1,R,2,1,37,1324,0,3,332.2999999523163,233,L
2023-04-12T14:59:47Z,tlzx847n,serial-reaction-time,1,P,2,1,38,1324,0,2,516.3000001907349,332,H
2023-04-12T14:59:48Z,tlzx847n,serial-reaction-time,1,R,2,1,39,1324,0,4,319.7999999523163,324,L
2023-04-12T14:59:48Z,tlzx847n,serial-reaction-time,1,P,2,1,40,1324,0,4,351.69999980926514,244,H
2023-04-12T14:59:49Z,tlzx847n,serial-reaction-time,1,R,2,1,41,1324,0,3,483.59999990463257,443,L
2023-04-12T14:59:50Z,tlzx847n,serial-reaction-time,1,P,2,1,42,1324,0,1,416,431,H
2023-04-12T14:59:50Z,tlzx847n,serial-reaction-time,NA,R,2,1,43,1324,0,2,525.4000000953674,312,H
2023-04-12T14:59:51Z,tlzx847n,serial-reaction-time,1,R,2,0,43,1324,0,2,807.1000001430511,312,H
2023-04-12T14:59:51Z,tlzx847n,serial-reaction-time,1,P,2,1,44,1324,0,3,547.7000000476837,123,H
2023-04-12T14:59:52Z,tlzx847n,serial-reaction-time,1,R,2,1,45,1324,0,2,518.2000000476837,232,T
2023-04-12T14:59:52Z,tlzx847n,serial-reaction-time,1,P,2,1,46,1324,0,2,309.59999990463257,322,H
2023-04-12T14:59:53Z,tlzx847n,serial-reaction-time,1,R,2,1,47,1324,0,3,366.5,223,L
2023-04-12T14:59:53Z,tlzx847n,serial-reaction-time,1,P,2,1,48,1324,0,4,349.2000000476837,234,H
2023-04-12T14:59:54Z,tlzx847n,serial-reaction-time,1,R,2,1,49,1324,0,3,423.30000019073486,343,T
2023-04-12T14:59:54Z,tlzx847n,serial-reaction-time,1,P,2,1,50,1324,0,1,403,431,H
2023-04-12T14:59:55Z,tlzx847n,serial-reaction-time,1,R,2,1,51,1324,0,3,385.59999990463257,313,T
2023-04-12T14:59:55Z,tlzx847n,serial-reaction-time,1,P,2,1,52,1324,0,3,361.40000009536743,133,H
2023-04-12T14:59:56Z,tlzx847n,serial-reaction-time,1,R,2,1,53,1324,0,4,342.2000000476837,334,L
2023-04-12T14:59:57Z,tlzx847n,serial-reaction-time,1,P,2,1,54,1324,0,2,368.30000019073486,342,H
2023-04-12T14:59:57Z,tlzx847n,serial-reaction-time,1,R,2,1,55,1324,0,2,345.59999990463257,422,L
2023-04-12T14:59:58Z,tlzx847n,serial-reaction-time,1,P,2,1,56,1324,0,4,400.2999999523163,224,H
2023-04-12T14:59:58Z,tlzx847n,serial-reaction-time,1,R,2,1,57,1324,0,2,329.59999990463257,242,T
2023-04-12T14:59:59Z,tlzx847n,serial-reaction-time,1,P,2,1,58,1324,0,1,392.59999990463257,421,H
2023-04-12T14:59:59Z,tlzx847n,serial-reaction-time,1,R,2,1,59,1324,0,3,428.2999999523163,213,L
2023-04-12T15:00:00Z,tlzx847n,serial-reaction-time,1,P,2,1,60,1324,0,3,369.2999999523163,133,H
2023-04-12T15:00:00Z,tlzx847n,serial-reaction-time,1,R,2,1,61,1324,0,4,351.60000014305115,334,L
2023-04-12T15:00:01Z,tlzx847n,serial-reaction-time,1,P,2,1,62,1324,0,2,338,342,H
2023-04-12T15:00:01Z,tlzx847n,serial-reaction-time,1,R,2,1,63,1324,0,1,361.2999999523163,421,H
2023-04-12T15:00:02Z,tlzx847n,serial-reaction-time,1,P,2,1,64,1324,0,4,550.2000000476837,214,H
2023-04-12T15:00:02Z,tlzx847n,serial-reaction-time,1,R,2,1,65,1324,0,4,432.30000019073486,144,L
2023-04-12T15:00:03Z,tlzx847n,serial-reaction-time,1,P,2,1,66,1324,0,1,413.59999990463257,441,H
2023-04-12T15:00:03Z,tlzx847n,serial-reaction-time,1,R,2,1,67,1324,0,1,361.40000009536743,411,H
2023-04-12T15:00:04Z,tlzx847n,serial-reaction-time,1,P,2,1,68,1324,0,3,713.7000000476837,113,H
2023-04-12T15:00:05Z,tlzx847n,serial-reaction-time,1,R,2,1,69,1324,0,4,420.10000014305115,134,L
2023-04-12T15:00:05Z,tlzx847n,serial-reaction-time,1,P,2,1,70,1324,0,2,328.59999990463257,342,H
2023-04-12T15:00:06Z,tlzx847n,serial-reaction-time,1,R,2,1,71,1324,0,3,462.40000009536743,423,L
2023-04-12T15:00:06Z,tlzx847n,serial-reaction-time,1,P,2,1,72,1324,0,4,346.59999990463257,234,H
2023-04-12T15:00:07Z,tlzx847n,serial-reaction-time,1,R,2,1,73,1324,0,3,402.7999999523163,343,T
2023-04-12T15:00:08Z,tlzx847n,serial-reaction-time,1,P,2,1,74,1324,0,1,609.7999999523163,431,H
2023-04-12T15:00:08Z,tlzx847n,serial-reaction-time,1,R,2,1,75,1324,0,3,453.30000019073486,313,T
2023-04-12T15:00:09Z,tlzx847n,serial-reaction-time,1,P,2,1,76,1324,0,3,392.60000014305115,133,H
2023-04-12T15:00:09Z,tlzx847n,serial-reaction-time,1,R,2,1,77,1324,0,1,413.40000009536743,331,L
2023-04-12T15:00:10Z,tlzx847n,serial-reaction-time,1,P,2,1,78,1324,0,2,388.2999999523163,312,H
2023-04-12T15:00:10Z,tlzx847n,serial-reaction-time,1,R,2,1,79,1324,0,3,334.5,123,H
2023-04-12T15:00:11Z,tlzx847n,serial-reaction-time,1,P,2,1,80,1324,0,4,311.2000000476837,234,H
2023-04-12T15:00:16Z,tlzx847n,html-keyboard-response,NA,NA,NA,NA,NA,NA,NA,NA,NA,NA,NA
2023-04-12T15:00:17Z,tlzx847n,html-keyboard-response,NA,NA,NA,NA,NA,NA,NA,NA,NA,NA,NA
2023-04-12T15:00:18Z,tlzx847n,serial-reaction-time,1,R,3,1,1,1324,0,3,479,3,X
2023-04-12T15:00:19Z,tlzx847n,serial-reaction-time,NA,P,3,1,2,1324,0,1,339.7000000476837,31,X
2023-04-12T15:00:19Z,tlzx847n,serial-reaction-time,1,P,3,0,2,1324,0,1,677.7000000476837,31,X
2023-04-12T15:00:20Z,tlzx847n,serial-reaction-time,1,R,3,1,3,1324,0,2,530.4000000953674,312,H
2023-04-12T15:00:20Z,tlzx847n,serial-reaction-time,1,P,3,1,4,1324,0,3,322.2000000476837,123,H
2023-04-12T15:00:21Z,tlzx847n,serial-reaction-time,1,R,3,1,5,1324,0,4,294.7000000476837,234,H
2023-04-12T15:00:21Z,tlzx847n,serial-reaction-time,1,P,3,1,6,1324,0,2,345.2999999523163,342,H
2023-04-12T15:00:22Z,tlzx847n,serial-reaction-time,1,R,3,1,7,1324,0,2,305.89999985694885,422,L
2023-04-12T15:00:22Z,tlzx847n,serial-reaction-time,1,P,3,1,8,1324,0,4,363.09999990463257,224,H
2023-04-12T15:00:23Z,tlzx847n,serial-reaction-time,1,R,3,1,9,1324,0,1,294.89999985694885,241,L
2023-04-12T15:00:23Z,tlzx847n,serial-reaction-time,1,P,3,1,10,1324,0,1,409.5,411,H
2023-04-12T15:00:24Z,tlzx847n,serial-reaction-time,1,R,3,1,11,1324,0,1,325.2999999523163,111,R
2023-04-12T15:00:24Z,tlzx847n,serial-reaction-time,1,P,3,1,12,1324,0,3,367.90000009536743,113,H
2023-04-12T15:00:24Z,tlzx847n,serial-reaction-time,1,R,3,1,13,1324,0,3,301.40000009536743,133,H
2023-04-12T15:00:25Z,tlzx847n,serial-reaction-time,1,P,3,1,14,1324,0,2,359.09999990463257,332,H
2023-04-12T15:00:26Z,tlzx847n,serial-reaction-time,1,R,3,1,15,1324,0,4,1382.9000000953674,324,L
2023-04-12T15:00:27Z,tlzx847n,serial-reaction-time,1,P,3,1,16,1324,0,4,362.2000000476837,244,H
2023-04-12T15:00:27Z,tlzx847n,serial-reaction-time,1,R,3,1,17,1324,0,4,305.7999999523163,444,R
2023-04-12T15:00:28Z,tlzx847n,serial-reaction-time,1,P,3,1,18,1324,0,1,372.19999980926514,441,H
2023-04-12T15:00:30Z,tlzx847n,serial-reaction-time,1,R,3,1,19,1324,0,3,1565.9000000953674,413,L
2023-04-12T15:00:30Z,tlzx847n,serial-reaction-time,1,P,3,1,20,1324,0,3,397.60000014305115,133,H
2023-04-12T15:00:31Z,tlzx847n,serial-reaction-time,1,R,3,1,21,1324,0,3,336.90000009536743,333,R
2023-04-12T15:00:31Z,tlzx847n,serial-reaction-time,1,P,3,1,22,1324,0,2,364.2999999523163,332,H
2023-04-12T15:00:32Z,tlzx847n,serial-reaction-time,1,R,3,1,23,1324,0,2,304.60000014305115,322,H
2023-04-12T15:00:32Z,tlzx847n,serial-reaction-time,1,P,3,1,24,1324,0,4,322,224,H
2023-04-12T15:00:32Z,tlzx847n,serial-reaction-time,NA,R,3,1,25,1324,0,2,310.60000014305115,242,T
2023-04-12T15:00:33Z,tlzx847n,serial-reaction-time,1,R,3,0,25,1324,0,2,617.4000000953674,242,T
2023-04-12T15:00:33Z,tlzx847n,serial-reaction-time,1,P,3,1,26,1324,0,1,382.30000019073486,421,H
2023-04-12T15:00:34Z,tlzx847n,serial-reaction-time,NA,R,3,1,27,1324,0,2,394.2000000476837,212,T
2023-04-12T15:00:34Z,tlzx847n,serial-reaction-time,1,R,3,0,27,1324,0,2,775.5999999046326,212,T
2023-04-12T15:00:35Z,tlzx847n,serial-reaction-time,1,P,3,1,28,1324,0,3,410.80000019073486,123,H
2023-04-12T15:00:35Z,tlzx847n,serial-reaction-time,1,R,3,1,29,1324,0,1,345.59999990463257,231,L
2023-04-12T15:00:36Z,tlzx847n,serial-reaction-time,1,P,3,1,30,1324,0,2,335.10000014305115,312,H
2023-04-12T15:00:37Z,tlzx847n,serial-reaction-time,1,R,3,1,31,1324,0,3,909,123,H
2023-04-12T15:00:37Z,tlzx847n,serial-reaction-time,1,P,3,1,32,1324,0,4,423.7000000476837,234,H
2023-04-12T15:00:38Z,tlzx847n,serial-reaction-time,NA,R,3,1,33,1324,0,4,356.39999985694885,344,L
2023-04-12T15:00:38Z,tlzx847n,serial-reaction-time,1,R,3,0,33,1324,0,4,434.09999990463257,344,L
2023-04-12T15:00:38Z,tlzx847n,serial-reaction-time,1,P,3,1,34,1324,0,1,418.09999990463257,441,H
2023-04-12T15:00:39Z,tlzx847n,serial-reaction-time,1,R,3,1,35,1324,0,2,521,412,L
2023-04-12T15:00:40Z,tlzx847n,serial-reaction-time,1,P,3,1,36,1324,0,3,317.59999990463257,123,H
2023-04-12T15:00:40Z,tlzx847n,serial-reaction-time,1,R,3,1,37,1324,0,2,377.69999980926514,232,T
2023-04-12T15:00:40Z,tlzx847n,serial-reaction-time,1,P,3,1,38,1324,0,2,281.59999990463257,322,H
2023-04-12T15:00:41Z,tlzx847n,serial-reaction-time,1,R,3,1,39,1324,0,4,316.40000009536743,224,H
2023-04-12T15:00:41Z,tlzx847n,serial-reaction-time,1,P,3,1,40,1324,0,4,349.59999990463257,244,H
2023-04-12T15:00:42Z,tlzx847n,serial-reaction-time,1,R,3,1,41,1324,0,4,307.40000009536743,444,R
2023-04-12T15:00:42Z,tlzx847n,serial-reaction-time,1,P,3,1,42,1324,0,1,354.7999999523163,441,H
2023-04-12T15:00:43Z,tlzx847n,serial-reaction-time,1,R,3,1,43,1324,0,4,323.90000009536743,414,T
2023-04-12T15:00:43Z,tlzx847n,serial-reaction-time,1,P,3,1,44,1324,0,3,477.30000019073486,143,H
2023-04-12T15:00:44Z,tlzx847n,serial-reaction-time,1,R,3,1,45,1324,0,4,401.19999980926514,434,T
2023-04-12T15:00:45Z,tlzx847n,serial-reaction-time,1,P,3,1,46,1324,0,2,437.90000009536743,342,H
2023-04-12T15:00:45Z,tlzx847n,serial-reaction-time,1,R,3,1,47,1324,0,1,313.2999999523163,421,H
2023-04-12T15:00:46Z,tlzx847n,serial-reaction-time,1,P,3,1,48,1324,0,4,387.2000000476837,214,H
2023-04-12T15:00:46Z,tlzx847n,serial-reaction-time,1,R,3,1,49,1324,0,2,333.7999999523163,142,L
2023-04-12T15:00:46Z,tlzx847n,serial-reaction-time,1,P,3,1,50,1324,0,1,367.89999985694885,421,H
2023-04-12T15:00:47Z,tlzx847n,serial-reaction-time,NA,R,3,1,51,1324,0,3,319.39999985694885,213,L
2023-04-12T15:00:47Z,tlzx847n,serial-reaction-time,1,R,3,0,51,1324,0,3,708.6999998092651,213,L
2023-04-12T15:00:48Z,tlzx847n,serial-reaction-time,1,P,3,1,52,1324,0,3,349.5,133,H
2023-04-12T15:00:48Z,tlzx847n,serial-reaction-time,1,R,3,1,53,1324,0,3,298.39999985694885,333,R
2023-04-12T15:00:49Z,tlzx847n,serial-reaction-time,1,P,3,1,54,1324,0,2,316.2000000476837,332,H
2023-04-12T15:00:49Z,tlzx847n,serial-reaction-time,1,R,3,1,55,1324,0,3,375.09999990463257,323,T
2023-04-12T15:00:50Z,tlzx847n,serial-reaction-time,1,P,3,1,56,1324,0,4,438.89999985694885,234,H
2023-04-12T15:00:50Z,tlzx847n,serial-reaction-time,1,R,3,1,57,1324,0,1,336.5,341,L
2023-04-12T15:00:52Z,tlzx847n,serial-reaction-time,1,P,3,1,58,1324,0,1,1137.2999999523165,411,H
2023-04-12T15:00:52Z,tlzx847n,serial-reaction-time,NA,R,3,1,59,1324,0,2,455.69999980926514,112,L
2023-04-12T15:00:52Z,tlzx847n,serial-reaction-time,1,R,3,0,59,1324,0,2,772.1999998092651,112,L
2023-04-12T15:00:53Z,tlzx847n,serial-reaction-time,1,P,3,1,60,1324,0,3,374.7999999523163,123,H
2023-04-12T15:00:54Z,tlzx847n,serial-reaction-time,1,R,3,1,61,1324,0,2,411.39999985694885,232,T
2023-04-12T15:00:54Z,tlzx847n,serial-reaction-time,1,P,3,1,62,1324,0,2,410.59999990463257,322,H
2023-04-12T15:00:55Z,tlzx847n,serial-reaction-time,1,R,3,1,63,1324,0,1,323.40000009536743,221,L
2023-04-12T15:00:55Z,tlzx847n,serial-reaction-time,1,P,3,1,64,1324,0,4,438.90000009536743,214,H
2023-04-12T15:00:56Z,tlzx847n,serial-reaction-time,1,R,3,1,65,1324,0,3,425.2999999523163,143,H
2023-04-12T15:00:56Z,tlzx847n,serial-reaction-time,1,P,3,1,66,1324,0,1,359.7999999523163,431,H
2023-04-12T15:00:57Z,tlzx847n,serial-reaction-time,1,R,3,1,67,1324,0,2,380.40000009536743,312,H
2023-04-12T15:00:57Z,tlzx847n,serial-reaction-time,1,P,3,1,68,1324,0,3,478.7000000476837,123,H
2023-04-12T15:00:58Z,tlzx847n,serial-reaction-time,1,R,3,1,69,1324,0,4,341.2000000476837,234,H
2023-04-12T15:00:58Z,tlzx847n,serial-reaction-time,1,P,3,1,70,1324,0,2,432.7999999523163,342,H
2023-04-12T15:00:59Z,tlzx847n,serial-reaction-time,1,R,3,1,71,1324,0,2,319.40000009536743,422,L
2023-04-12T15:00:59Z,tlzx847n,serial-reaction-time,1,P,3,1,72,1324,0,4,356.7999999523163,224,H
2023-04-12T15:01:00Z,tlzx847n,serial-reaction-time,1,R,3,1,73,1324,0,3,371.09999990463257,243,L
2023-04-12T15:01:00Z,tlzx847n,serial-reaction-time,1,P,3,1,74,1324,0,1,404,431,H
2023-04-12T15:01:01Z,tlzx847n,serial-reaction-time,1,R,3,1,75,1324,0,2,355.2000000476837,312,H
2023-04-12T15:01:01Z,tlzx847n,serial-reaction-time,1,P,3,1,76,1324,0,3,361.2000000476837,123,H
2023-04-12T15:01:02Z,tlzx847n,serial-reaction-time,1,R,3,1,77,1324,0,3,349.7000000476837,233,L
2023-04-12T15:01:02Z,tlzx847n,serial-reaction-time,1,P,3,1,78,1324,0,2,337.2999999523163,332,H
2023-04-12T15:01:03Z,tlzx847n,serial-reaction-time,1,R,3,1,79,1324,0,1,322.09999990463257,321,L
2023-04-12T15:01:03Z,tlzx847n,serial-reaction-time,1,P,3,1,80,1324,0,4,378.59999990463257,214,H
2023-04-12T15:01:08Z,tlzx847n,html-keyboard-response,NA,NA,NA,NA,NA,NA,NA,NA,NA,NA,NA
2023-04-12T15:01:16Z,tlzx847n,html-keyboard-response,NA,NA,NA,NA,NA,NA,NA,NA,NA,NA,NA
2023-04-12T15:01:19Z,tlzx847n,serial-reaction-time,1,R,4,1,1,1324,0,4,1642.1000001430511,4,X
2023-04-12T15:01:19Z,tlzx847n,serial-reaction-time,1,P,4,1,2,1324,0,1,461.89999985694885,41,X
2023-04-12T15:01:20Z,tlzx847n,serial-reaction-time,1,R,4,1,3,1324,0,1,423.5,411,H
2023-04-12T15:01:20Z,tlzx847n,serial-reaction-time,1,P,4,1,4,1324,0,3,486.2000000476837,113,H
2023-04-12T15:01:21Z,tlzx847n,serial-reaction-time,1,R,4,1,5,1324,0,2,410.7000000476837,132,L
2023-04-12T15:01:21Z,tlzx847n,serial-reaction-time,1,P,4,1,6,1324,0,2,279.40000009536743,322,H
2023-04-12T15:01:22Z,tlzx847n,serial-reaction-time,1,R,4,1,7,1324,0,2,305.7000000476837,222,R
2023-04-12T15:01:22Z,tlzx847n,serial-reaction-time,1,P,4,1,8,1324,0,4,367.2000000476837,224,H
2023-04-12T15:01:23Z,tlzx847n,serial-reaction-time,1,R,4,1,9,1324,0,3,391.7000000476837,243,L
2023-04-12T15:01:23Z,tlzx847n,serial-reaction-time,1,P,4,1,10,1324,0,1,371.2000000476837,431,H
2023-04-12T15:01:24Z,tlzx847n,serial-reaction-time,1,R,4,1,11,1324,0,2,352.39999985694885,312,H
2023-04-12T15:01:24Z,tlzx847n,serial-reaction-time,1,P,4,1,12,1324,0,3,399.40000009536743,123,H
2023-04-12T15:01:25Z,tlzx847n,serial-reaction-time,1,R,4,1,13,1324,0,3,381.2000000476837,233,L
2023-04-12T15:01:25Z,tlzx847n,serial-reaction-time,1,P,4,1,14,1324,0,2,303,332,H
2023-04-12T15:01:26Z,tlzx847n,serial-reaction-time,1,R,4,1,15,1324,0,4,437.30000019073486,324,L
2023-04-12T15:01:26Z,tlzx847n,serial-reaction-time,1,P,4,1,16,1324,0,4,321.30000019073486,244,H
2023-04-12T15:01:27Z,tlzx847n,serial-reaction-time,NA,R,4,1,17,1324,0,3,342.40000009536743,443,L
2023-04-12T15:01:27Z,tlzx847n,serial-reaction-time,1,R,4,0,17,1324,0,3,589.3000001907349,443,L
2023-04-12T15:01:28Z,tlzx847n,serial-reaction-time,1,P,4,1,18,1324,0,1,432.7999999523163,431,H
2023-04-12T15:01:28Z,tlzx847n,serial-reaction-time,1,R,4,1,19,1324,0,1,281.59999990463257,311,L
2023-04-12T15:01:29Z,tlzx847n,serial-reaction-time,1,P,4,1,20,1324,0,3,309.2999999523163,113,H
2023-04-12T15:01:29Z,tlzx847n,serial-reaction-time,1,R,4,1,21,1324,0,3,315.2999999523163,133,H
2023-04-12T15:01:30Z,tlzx847n,serial-reaction-time,1,P,4,1,22,1324,0,2,395.80000019073486,332,H
2023-04-12T15:01:30Z,tlzx847n,serial-reaction-time,1,R,4,1,23,1324,0,4,355.59999990463257,324,L
2023-04-12T15:01:31Z,tlzx847n,serial-reaction-time,1,P,4,1,24,1324,0,4,417.90000009536743,244,H
2023-04-12T15:01:31Z,tlzx847n,serial-reaction-time,1,R,4,1,25,1324,0,2,302,442,L
2023-04-12T15:01:32Z,tlzx847n,serial-reaction-time,1,P,4,1,26,1324,0,1,396.5,421,H
2023-04-12T15:01:32Z,tlzx847n,serial-reaction-time,1,R,4,1,27,1324,0,3,338.89999985694885,213,L
2023-04-12T15:01:33Z,tlzx847n,serial-reaction-time,1,P,4,1,28,1324,0,3,305.69999980926514,133,H
2023-04-12T15:01:33Z,tlzx847n,serial-reaction-time,1,R,4,1,29,1324,0,3,574.2000000476837,333,R
2023-04-12T15:01:34Z,tlzx847n,serial-reaction-time,1,P,4,1,30,1324,0,2,599.7999999523163,332,H
2023-04-12T15:01:35Z,tlzx847n,serial-reaction-time,1,R,4,1,31,1324,0,4,382.2999999523163,324,L
2023-04-12T15:01:35Z,tlzx847n,serial-reaction-time,1,P,4,1,32,1324,0,4,291.59999990463257,244,H
2023-04-12T15:01:36Z,tlzx847n,serial-reaction-time,1,R,4,1,33,1324,0,2,521.5,442,L
2023-04-12T15:01:36Z,tlzx847n,serial-reaction-time,1,P,4,1,34,1324,0,1,371.59999990463257,421,H
2023-04-12T15:01:37Z,tlzx847n,serial-reaction-time,1,R,4,1,35,1324,0,2,327.40000009536743,212,T
2023-04-12T15:01:37Z,tlzx847n,serial-reaction-time,1,P,4,1,36,1324,0,3,557.5,123,H
2023-04-12T15:01:38Z,tlzx847n,serial-reaction-time,1,R,4,1,37,1324,0,1,344.59999990463257,231,L
2023-04-12T15:01:38Z,tlzx847n,serial-reaction-time,1,P,4,1,38,1324,0,2,393.89999985694885,312,H
2023-04-12T15:01:39Z,tlzx847n,serial-reaction-time,1,R,4,1,39,1324,0,1,270.7000000476837,121,T
2023-04-12T15:01:39Z,tlzx847n,serial-reaction-time,1,P,4,1,40,1324,0,4,369.59999990463257,214,H
2023-04-12T15:01:40Z,tlzx847n,serial-reaction-time,1,R,4,1,41,1324,0,3,378.19999980926514,143,H
2023-04-12T15:01:40Z,tlzx847n,serial-reaction-time,1,P,4,1,42,1324,0,1,484.2999999523163,431,H
2023-04-12T15:01:41Z,tlzx847n,serial-reaction-time,1,R,4,1,43,1324,0,4,419.09999990463257,314,L
2023-04-12T15:01:41Z,tlzx847n,serial-reaction-time,1,P,4,1,44,1324,0,3,378.39999985694885,143,H
2023-04-12T15:01:42Z,tlzx847n,serial-reaction-time,1,R,4,1,45,1324,0,1,401.30000019073486,431,H
2023-04-12T15:01:43Z,tlzx847n,serial-reaction-time,1,P,4,1,46,1324,0,2,385.7000000476837,312,H
2023-04-12T15:01:43Z,tlzx847n,serial-reaction-time,1,R,4,1,47,1324,0,1,379.69999980926514,121,T
2023-04-12T15:01:44Z,tlzx847n,serial-reaction-time,1,P,4,1,48,1324,0,4,402.7000000476837,214,H
2023-04-12T15:01:44Z,tlzx847n,serial-reaction-time,1,R,4,1,49,1324,0,3,547,143,H
2023-04-12T15:01:45Z,tlzx847n,serial-reaction-time,NA,P,4,1,50,1324,0,1,328.90000009536743,431,H
2023-04-12T15:01:45Z,tlzx847n,serial-reaction-time,1,P,4,0,50,1324,0,1,613.8000001907349,431,H
2023-04-12T15:01:46Z,tlzx847n,serial-reaction-time,1,R,4,1,51,1324,0,3,559.5,313,T
2023-04-12T15:01:46Z,tlzx847n,serial-reaction-time,1,P,4,1,52,1324,0,3,318.09999990463257,133,H
2023-04-12T15:01:47Z,tlzx847n,serial-reaction-time,1,R,4,1,53,1324,0,3,318.89999985694885,333,R
2023-04-12T15:01:47Z,tlzx847n,serial-reaction-time,1,P,4,1,54,1324,0,2,615.2999999523163,332,H
2023-04-12T15:01:48Z,tlzx847n,serial-reaction-time,1,R,4,1,55,1324,0,1,410.5,321,L
2023-04-12T15:01:49Z,tlzx847n,serial-reaction-time,1,P,4,1,56,1324,0,4,448.7000000476837,214,H
2023-04-12T15:01:49Z,tlzx847n,serial-reaction-time,1,R,4,1,57,1324,0,4,330.39999985694885,144,L
2023-04-12T15:01:49Z,tlzx847n,serial-reaction-time,1,P,4,1,58,1324,0,1,352,441,H
2023-04-12T15:01:50Z,tlzx847n,serial-reaction-time,1,R,4,1,59,1324,0,1,294.7999999523163,411,H
2023-04-12T15:01:51Z,tlzx847n,serial-reaction-time,1,P,4,1,60,1324,0,3,602.3999998569489,113,H
2023-04-12T15:01:51Z,tlzx847n,serial-reaction-time,1,R,4,1,61,1324,0,3,300.7999999523163,133,H
2023-04-12T15:01:52Z,tlzx847n,serial-reaction-time,1,P,4,1,62,1324,0,2,382.30000019073486,332,H
2023-04-12T15:01:52Z,tlzx847n,serial-reaction-time,1,R,4,1,63,1324,0,3,332.10000014305115,323,T
2023-04-12T15:01:53Z,tlzx847n,serial-reaction-time,1,P,4,1,64,1324,0,4,425.7999999523163,234,H
2023-04-12T15:01:54Z,tlzx847n,serial-reaction-time,1,R,4,1,65,1324,0,2,764.0999999046326,342,H
2023-04-12T15:01:54Z,tlzx847n,serial-reaction-time,1,P,4,1,66,1324,0,1,475.5,421,H
2023-04-12T15:01:55Z,tlzx847n,serial-reaction-time,NA,R,4,1,67,1324,0,2,369.39999985694885,212,T
2023-04-12T15:01:55Z,tlzx847n,serial-reaction-time,1,R,4,0,67,1324,0,2,741.9999997615814,212,T
2023-04-12T15:01:56Z,tlzx847n,serial-reaction-time,1,P,4,1,68,1324,0,3,538.0999999046326,123,H
2023-04-12T15:01:56Z,tlzx847n,serial-reaction-time,1,R,4,1,69,1324,0,4,346.2000000476837,234,H
2023-04-12T15:01:57Z,tlzx847n,serial-reaction-time,1,P,4,1,70,1324,0,2,439.59999990463257,342,H
2023-04-12T15:01:57Z,tlzx847n,serial-reaction-time,1,R,4,1,71,1324,0,4,351.90000009536743,424,T
2023-04-12T15:01:58Z,tlzx847n,serial-reaction-time,1,P,4,1,72,1324,0,4,355.5,244,H
2023-04-12T15:01:58Z,tlzx847n,serial-reaction-time,1,R,4,1,73,1324,0,4,311.39999985694885,444,R
2023-04-12T15:01:59Z,tlzx847n,serial-reaction-time,1,P,4,1,74,1324,0,1,337.5,441,H
2023-04-12T15:01:59Z,tlzx847n,serial-reaction-time,1,R,4,1,75,1324,0,2,449.09999990463257,412,L
2023-04-12T15:02:00Z,tlzx847n,serial-reaction-time,1,P,4,1,76,1324,0,3,493.2999999523163,123,H
2023-04-12T15:02:01Z,tlzx847n,serial-reaction-time,1,R,4,1,77,1324,0,1,491.2999999523163,231,L
2023-04-12T15:02:01Z,tlzx847n,serial-reaction-time,1,P,4,1,78,1324,0,2,507.7999999523163,312,H
2023-04-12T15:02:02Z,tlzx847n,serial-reaction-time,1,R,4,1,79,1324,0,3,419.09999990463257,123,H
2023-04-12T15:02:02Z,tlzx847n,serial-reaction-time,1,P,4,1,80,1324,0,4,328.5,234,H
2023-04-12T15:02:07Z,tlzx847n,html-keyboard-response,NA,NA,NA,NA,NA,NA,NA,NA,NA,NA,NA
2023-04-12T15:02:16Z,tlzx847n,html-keyboard-response,NA,NA,NA,NA,NA,NA,NA,NA,NA,NA,NA
2023-04-12T15:02:17Z,tlzx847n,serial-reaction-time,1,R,5,1,1,1324,0,2,386.09999990463257,2,X
2023-04-12T15:02:18Z,tlzx847n,serial-reaction-time,1,P,5,1,2,1324,0,1,354.39999985694885,21,X
2023-04-12T15:02:18Z,tlzx847n,serial-reaction-time,1,R,5,1,3,1324,0,1,394.5,211,L
2023-04-12T15:02:19Z,tlzx847n,serial-reaction-time,1,P,5,1,4,1324,0,3,387.40000009536743,113,H
2023-04-12T15:02:19Z,tlzx847n,serial-reaction-time,1,R,5,1,5,1324,0,4,331.59999990463257,134,L
2023-04-12T15:02:20Z,tlzx847n,serial-reaction-time,NA,P,5,1,6,1324,0,2,352.7000000476837,342,H
2023-04-12T15:02:20Z,tlzx847n,serial-reaction-time,1,P,5,0,6,1324,0,2,361.90000009536743,342,H
2023-04-12T15:02:20Z,tlzx847n,serial-reaction-time,1,R,5,1,7,1324,0,4,327.7000000476837,424,T
2023-04-12T15:02:21Z,tlzx847n,serial-reaction-time,1,P,5,1,8,1324,0,4,431.40000009536743,244,H
2023-04-12T15:02:23Z,tlzx847n,serial-reaction-time,1,R,5,1,9,1324,0,4,1884.5,444,R
2023-04-12T15:02:23Z,tlzx847n,serial-reaction-time,1,P,5,1,10,1324,0,1,425.2999999523163,441,H
2023-04-12T15:02:24Z,tlzx847n,serial-reaction-time,1,R,5,1,11,1324,0,2,472.30000019073486,412,L
2023-04-12T15:02:24Z,tlzx847n,serial-reaction-time,1,P,5,1,12,1324,0,3,271.2000000476837,123,H
2023-04-12T15:02:25Z,tlzx847n,serial-reaction-time,1,R,5,1,13,1324,0,2,323.60000014305115,232,T
2023-04-12T15:02:25Z,tlzx847n,serial-reaction-time,1,P,5,1,14,1324,0,2,282.09999990463257,322,H
2023-04-12T15:02:26Z,tlzx847n,serial-reaction-time,1,R,5,1,15,1324,0,4,329.7000000476837,224,H
2023-04-12T15:02:26Z,tlzx847n,serial-reaction-time,1,P,5,1,16,1324,0,4,374.5,244,H
2023-04-12T15:02:27Z,tlzx847n,serial-reaction-time,1,R,5,1,17,1324,0,1,307.2000000476837,441,H
2023-04-12T15:02:27Z,tlzx847n,serial-reaction-time,1,P,5,1,18,1324,0,1,314.7000000476837,411,H
2023-04-12T15:02:28Z,tlzx847n,serial-reaction-time,NA,R,5,1,19,1324,0,3,330.5,113,H
2023-04-12T15:02:28Z,tlzx847n,serial-reaction-time,1,R,5,0,19,1324,0,3,593.8999998569489,113,H
2023-04-12T15:02:28Z,tlzx847n,serial-reaction-time,1,P,5,1,20,1324,0,3,314.09999990463257,133,H
2023-04-12T15:02:29Z,tlzx847n,serial-reaction-time,NA,R,5,1,21,1324,0,1,329.09999990463257,331,L
2023-04-12T15:02:29Z,tlzx847n,serial-reaction-time,1,R,5,0,21,1324,0,1,528.7999999523163,331,L
2023-04-12T15:02:30Z,tlzx847n,serial-reaction-time,1,P,5,1,22,1324,0,2,463.89999985694885,312,H
2023-04-12T15:02:30Z,tlzx847n,serial-reaction-time,1,R,5,1,23,1324,0,3,314.40000009536743,123,H
2023-04-12T15:02:31Z,tlzx847n,serial-reaction-time,1,P,5,1,24,1324,0,4,329.7000000476837,234,H
2023-04-12T15:02:31Z,tlzx847n,serial-reaction-time,1,R,5,1,25,1324,0,1,377.5,341,L
2023-04-12T15:02:32Z,tlzx847n,serial-reaction-time,1,P,5,1,26,1324,0,1,370.5,411,H
2023-04-12T15:02:32Z,tlzx847n,serial-reaction-time,1,R,5,1,27,1324,0,3,342.5,113,H
2023-04-12T15:02:33Z,tlzx847n,serial-reaction-time,1,P,5,1,28,1324,0,3,346.7999999523163,133,H
2023-04-12T15:02:33Z,tlzx847n,serial-reaction-time,1,R,5,1,29,1324,0,4,371.7000000476837,334,L
2023-04-12T15:02:34Z,tlzx847n,serial-reaction-time,1,P,5,1,30,1324,0,2,433.89999985694885,342,H
2023-04-12T15:02:34Z,tlzx847n,serial-reaction-time,1,R,5,1,31,1324,0,4,384.40000009536743,424,T
2023-04-12T15:02:35Z,tlzx847n,serial-reaction-time,1,P,5,1,32,1324,0,4,373.39999985694885,244,H
2023-04-12T15:02:35Z,tlzx847n,serial-reaction-time,1,R,5,1,33,1324,0,3,340,443,L
2023-04-12T15:02:36Z,tlzx847n,serial-reaction-time,1,P,5,1,34,1324,0,1,422.5,431,H
2023-04-12T15:02:36Z,tlzx847n,serial-reaction-time,1,R,5,1,35,1324,0,3,378.60000014305115,313,T
2023-04-12T15:02:37Z,tlzx847n,serial-reaction-time,1,P,5,1,36,1324,0,3,304.30000019073486,133,H
2023-04-12T15:02:37Z,tlzx847n,serial-reaction-time,1,R,5,1,37,1324,0,1,355.5,331,L
2023-04-12T15:02:38Z,tlzx847n,serial-reaction-time,1,P,5,1,38,1324,0,2,421,312,H
2023-04-12T15:02:38Z,tlzx847n,serial-reaction-time,NA,R,5,1,39,1324,0,4,410.59999990463257,124,L
2023-04-12T15:02:39Z,tlzx847n,serial-reaction-time,1,R,5,0,39,1324,0,4,659.2999999523163,124,L
2023-04-12T15:02:39Z,tlzx847n,serial-reaction-time,1,P,5,1,40,1324,0,4,306.2999999523163,244,H
2023-04-12T15:02:40Z,tlzx847n,serial-reaction-time,1,R,5,1,41,1324,0,3,375.5,443,L
2023-04-12T15:02:40Z,tlzx847n,serial-reaction-time,1,P,5,1,42,1324,0,1,492,431,H
2023-04-12T15:02:41Z,tlzx847n,serial-reaction-time,1,R,5,1,43,1324,0,2,369.59999990463257,312,H
2023-04-12T15:02:41Z,tlzx847n,serial-reaction-time,1,P,5,1,44,1324,0,3,396.89999985694885,123,H
2023-04-12T15:02:42Z,tlzx847n,serial-reaction-time,1,R,5,1,45,1324,0,3,260.2999999523163,233,L
2023-04-12T15:02:42Z,tlzx847n,serial-reaction-time,1,P,5,1,46,1324,0,2,382.7000000476837,332,H
2023-04-12T15:02:43Z,tlzx847n,serial-reaction-time,1,R,5,1,47,1324,0,3,412.09999990463257,323,T
2023-04-12T15:02:43Z,tlzx847n,serial-reaction-time,1,P,5,1,48,1324,0,4,524.6999998092651,234,H
2023-04-12T15:02:44Z,tlzx847n,serial-reaction-time,1,R,5,1,49,1324,0,1,348.7999999523163,341,L
2023-04-12T15:02:44Z,tlzx847n,serial-reaction-time,1,P,5,1,50,1324,0,1,361.7999999523163,411,H
2023-04-12T15:02:46Z,tlzx847n,serial-reaction-time,1,R,5,1,51,1324,0,4,1387,114,L
2023-04-12T15:02:47Z,tlzx847n,serial-reaction-time,1,P,5,1,52,1324,0,3,1165.2999999523165,143,H
2023-04-12T15:02:48Z,tlzx847n,serial-reaction-time,1,R,5,1,53,1324,0,2,378.7000000476837,432,L
2023-04-12T15:02:48Z,tlzx847n,serial-reaction-time,1,P,5,1,54,1324,0,2,336.59999990463257,322,H
2023-04-12T15:02:49Z,tlzx847n,serial-reaction-time,1,R,5,1,55,1324,0,1,348.09999990463257,221,L
2023-04-12T15:02:49Z,tlzx847n,serial-reaction-time,1,P,5,1,56,1324,0,4,470.59999990463257,214,H
2023-04-12T15:02:50Z,tlzx847n,serial-reaction-time,1,R,5,1,57,1324,0,1,605.2000000476837,141,T
2023-04-12T15:02:51Z,tlzx847n,serial-reaction-time,1,P,5,1,58,1324,0,1,668.2000000476837,411,H
2023-04-12T15:02:51Z,tlzx847n,serial-reaction-time,1,R,5,1,59,1324,0,4,384.7999999523163,114,L
2023-04-12T15:02:52Z,tlzx847n,serial-reaction-time,1,P,5,1,60,1324,0,3,575.5999999046326,143,H
2023-04-12T15:02:53Z,tlzx847n,serial-reaction-time,1,R,5,1,61,1324,0,3,385,433,L
2023-04-12T15:02:53Z,tlzx847n,serial-reaction-time,1,P,5,1,62,1324,0,2,391.2000000476837,332,H
2023-04-12T15:02:54Z,tlzx847n,serial-reaction-time,1,R,5,1,63,1324,0,1,538.7999999523163,321,L
2023-04-12T15:02:55Z,tlzx847n,serial-reaction-time,1,P,5,1,64,1324,0,4,486.09999990463257,214,H
2023-04-12T15:02:55Z,tlzx847n,serial-reaction-time,1,R,5,1,65,1324,0,4,511.40000009536743,144,L
2023-04-12T15:02:56Z,tlzx847n,serial-reaction-time,1,P,5,1,66,1324,0,1,376.2000000476837,441,H
2023-04-12T15:02:56Z,tlzx847n,serial-reaction-time,1,R,5,1,67,1324,0,1,377.2000000476837,411,H
2023-04-12T15:02:57Z,tlzx847n,serial-reaction-time,1,P,5,1,68,1324,0,3,531.5,113,H
2023-04-12T15:02:57Z,tlzx847n,serial-reaction-time,1,R,5,1,69,1324,0,2,395.60000014305115,132,L
2023-04-12T15:02:58Z,tlzx847n,serial-reaction-time,1,P,5,1,70,1324,0,2,421.5,322,H
2023-04-12T15:02:59Z,tlzx847n,serial-reaction-time,1,R,5,1,71,1324,0,4,420.5,224,H
2023-04-12T15:02:59Z,tlzx847n,serial-reaction-time,1,P,5,1,72,1324,0,4,615.6000001430511,244,H
2023-04-12T15:03:00Z,tlzx847n,serial-reaction-time,1,R,5,1,73,1324,0,3,504.5,443,L
2023-04-12T15:03:01Z,tlzx847n,serial-reaction-time,1,P,5,1,74,1324,0,1,672,431,H
2023-04-12T15:03:01Z,tlzx847n,serial-reaction-time,NA,R,5,1,75,1324,0,2,450.39999985694885,312,H
2023-04-12T15:03:02Z,tlzx847n,serial-reaction-time,1,R,5,0,75,1324,0,2,773.4999997615814,312,H
2023-04-12T15:03:02Z,tlzx847n,serial-reaction-time,1,P,5,1,76,1324,0,3,442.7000000476837,123,H
2023-04-12T15:03:03Z,tlzx847n,serial-reaction-time,1,R,5,1,77,1324,0,2,391.89999985694885,232,T
2023-04-12T15:03:03Z,tlzx847n,serial-reaction-time,1,P,5,1,78,1324,0,2,365.2000000476837,322,H
2023-04-12T15:03:04Z,tlzx847n,serial-reaction-time,1,R,5,1,79,1324,0,3,454.09999990463257,223,L
2023-04-12T15:03:05Z,tlzx847n,serial-reaction-time,1,P,5,1,80,1324,0,4,434.5,234,H
2023-04-12T15:03:10Z,tlzx847n,html-keyboard-response,NA,NA,NA,NA,NA,NA,NA,NA,NA,NA,NA
2023-04-12T15:03:11Z,tlzx847n,html-keyboard-response,NA,NA,NA,NA,NA,NA,NA,NA,NA,NA,NA
2023-04-12T15:03:12Z,tlzx847n,fullscreen,NA,NA,NA,NA,NA,NA,NA,NA,NA,NA,NA
2023-04-12T23:44:30Z,ignzshk6,fullscreen,NA,NA,NA,NA,NA,NA,NA,NA,NA,NA,NA
2023-04-12T23:44:34Z,ignzshk6,html-keyboard-response,NA,NA,NA,NA,NA,NA,NA,NA,NA,NA,NA
2023-04-12T23:44:35Z,ignzshk6,serial-reaction-time,1,R,1,1,1,4321,0,2,311.69999999925494,2,X
2023-04-12T23:44:36Z,ignzshk6,serial-reaction-time,1,P,1,1,2,4321,0,4,275.30000000074506,24,X
2023-04-12T23:44:36Z,ignzshk6,serial-reaction-time,1,R,1,1,3,4321,0,2,324.5,242,T
2023-04-12T23:44:37Z,ignzshk6,serial-reaction-time,1,P,1,1,4,4321,0,3,265.5,423,H
2023-04-12T23:44:37Z,ignzshk6,serial-reaction-time,1,R,1,1,5,4321,0,3,268.0999999977648,233,L
2023-04-12T23:44:37Z,ignzshk6,serial-reaction-time,1,P,1,1,6,4321,0,2,333.30000000074506,332,H
2023-04-12T23:44:38Z,ignzshk6,serial-reaction-time,1,R,1,1,7,4321,0,3,349,323,T
2023-04-12T23:44:38Z,ignzshk6,serial-reaction-time,1,P,1,1,8,4321,0,1,334.9000000022352,231,H
2023-04-12T23:44:39Z,ignzshk6,serial-reaction-time,1,R,1,1,9,4321,0,3,316.19999999925494,313,T
2023-04-12T23:44:39Z,ignzshk6,serial-reaction-time,1,P,1,1,10,4321,0,4,305.5,134,H
2023-04-12T23:44:40Z,ignzshk6,serial-reaction-time,1,R,1,1,11,4321,0,2,325.69999999925494,342,H
2023-04-12T23:44:40Z,ignzshk6,serial-reaction-time,1,P,1,1,12,4321,0,3,286.30000000074506,423,H
2023-04-12T23:44:41Z,ignzshk6,serial-reaction-time,NA,R,1,1,13,4321,0,2,338.9000000022352,232,T
2023-04-12T23:44:41Z,ignzshk6,serial-reaction-time,1,R,1,0,13,4321,0,2,604.6000000052154,232,T
2023-04-12T23:44:41Z,ignzshk6,serial-reaction-time,1,P,1,1,14,4321,0,2,287.19999999925494,322,H
2023-04-12T23:44:42Z,ignzshk6,serial-reaction-time,1,R,1,1,15,4321,0,4,320.0999999977648,224,L
2023-04-12T23:44:42Z,ignzshk6,serial-reaction-time,1,P,1,1,16,4321,0,1,389.5,241,H
2023-04-12T23:44:43Z,ignzshk6,serial-reaction-time,1,R,1,1,17,4321,0,2,325.5999999977648,412,L
2023-04-12T23:44:43Z,ignzshk6,serial-reaction-time,NA,P,1,1,18,4321,0,4,210.69999999925497,124,H
2023-04-12T23:44:43Z,ignzshk6,serial-reaction-time,1,P,1,0,18,4321,0,4,455.79999999701977,124,H
2023-04-12T23:44:44Z,ignzshk6,serial-reaction-time,1,R,1,1,19,4321,0,4,294.5,244,L
2023-04-12T23:44:44Z,ignzshk6,serial-reaction-time,1,P,1,1,20,4321,0,3,381.1000000014901,443,H
2023-04-12T23:44:45Z,ignzshk6,serial-reaction-time,1,R,1,1,21,4321,0,1,326.19999999925494,431,L
2023-04-12T23:44:45Z,ignzshk6,serial-reaction-time,1,P,1,1,22,4321,0,2,341.80000000074506,312,H
2023-04-12T23:44:46Z,ignzshk6,serial-reaction-time,1,R,1,1,23,4321,0,2,252.29999999701977,122,L
2023-04-12T23:44:46Z,ignzshk6,serial-reaction-time,1,P,1,1,24,4321,0,1,325.80000000074506,221,H
2023-04-12T23:44:46Z,ignzshk6,serial-reaction-time,1,R,1,1,25,4321,0,3,340.6000000014901,213,L
2023-04-12T23:44:47Z,ignzshk6,serial-reaction-time,1,P,1,1,26,4321,0,4,314.80000000074506,134,H
2023-04-12T23:44:47Z,ignzshk6,serial-reaction-time,1,R,1,1,27,4321,0,3,391.20000000298023,343,T
2023-04-12T23:44:48Z,ignzshk6,serial-reaction-time,1,P,1,1,28,4321,0,3,324.6000000014901,433,H
2023-04-12T23:44:48Z,ignzshk6,serial-reaction-time,1,R,1,1,29,4321,0,1,346.6000000014901,331,L
2023-04-12T23:44:49Z,ignzshk6,serial-reaction-time,1,P,1,1,30,4321,0,2,325.5,312,H
2023-04-12T23:44:49Z,ignzshk6,serial-reaction-time,1,R,1,1,31,4321,0,4,346.80000000074506,124,H
2023-04-12T23:44:50Z,ignzshk6,serial-reaction-time,1,P,1,1,32,4321,0,1,414.5,241,H
2023-04-12T23:44:50Z,ignzshk6,serial-reaction-time,1,R,1,1,33,4321,0,3,300.9000000022352,413,H
2023-04-12T23:44:51Z,ignzshk6,serial-reaction-time,1,P,1,1,34,4321,0,4,416.8999999985099,134,H
2023-04-12T23:44:51Z,ignzshk6,serial-reaction-time,1,R,1,1,35,4321,0,4,305.5,344,L
2023-04-12T23:44:52Z,ignzshk6,serial-reaction-time,1,P,1,1,36,4321,0,3,396.80000000074506,443,H
2023-04-12T23:44:52Z,ignzshk6,serial-reaction-time,NA,R,1,1,37,4321,0,4,320.20000000298023,434,T
2023-04-12T23:44:52Z,ignzshk6,serial-reaction-time,1,R,1,0,37,4321,0,4,535.4000000022352,434,T
2023-04-12T23:44:53Z,ignzshk6,serial-reaction-time,1,P,1,1,38,4321,0,2,329.80000000074506,342,H
2023-04-12T23:44:53Z,ignzshk6,serial-reaction-time,1,R,1,1,39,4321,0,4,349.4000000022352,424,T
2023-04-12T23:44:54Z,ignzshk6,serial-reaction-time,1,P,1,1,40,4321,0,1,347.5,241,H
2023-04-12T23:44:54Z,ignzshk6,serial-reaction-time,1,R,1,1,41,4321,0,3,316.9000000022352,413,H
2023-04-12T23:44:55Z,ignzshk6,serial-reaction-time,1,P,1,1,42,4321,0,4,405.9000000022352,134,H
2023-04-12T23:44:55Z,ignzshk6,serial-reaction-time,1,R,1,1,43,4321,0,4,364.1000000014901,344,L
2023-04-12T23:44:56Z,ignzshk6,serial-reaction-time,1,P,1,1,44,4321,0,3,376.0999999977648,443,H
2023-04-12T23:44:56Z,ignzshk6,serial-reaction-time,1,R,1,1,45,4321,0,2,338.6000000014901,432,L
2023-04-12T23:44:57Z,ignzshk6,serial-reaction-time,1,P,1,1,46,4321,0,2,245.70000000298023,322,H
2023-04-12T23:44:57Z,ignzshk6,serial-reaction-time,1,R,1,1,47,4321,0,4,355.30000000074506,224,L
2023-04-12T23:44:58Z,ignzshk6,serial-reaction-time,1,P,1,1,48,4321,0,1,388.80000000074506,241,H
2023-04-12T23:44:58Z,ignzshk6,serial-reaction-time,1,R,1,1,49,4321,0,2,365.6000000014901,412,L
2023-04-12T23:44:59Z,ignzshk6,serial-reaction-time,1,P,1,1,50,4321,0,4,405.30000000074506,124,H
2023-04-12T23:44:59Z,ignzshk6,serial-reaction-time,1,R,1,1,51,4321,0,2,313.79999999701977,242,T
2023-04-12T23:45:00Z,ignzshk6,serial-reaction-time,1,P,1,1,52,4321,0,3,488.30000000074506,423,H
2023-04-12T23:45:00Z,ignzshk6,serial-reaction-time,1,R,1,1,53,4321,0,4,356.5,234,L
2023-04-12T23:45:01Z,ignzshk6,serial-reaction-time,1,P,1,1,54,4321,0,2,305.69999999925494,342,H
2023-04-12T23:45:01Z,ignzshk6,serial-reaction-time,1,R,1,1,55,4321,0,2,258.30000000074506,422,L
2023-04-12T23:45:02Z,ignzshk6,serial-reaction-time,1,P,1,1,56,4321,0,1,328.5999999977648,221,H
2023-04-12T23:45:02Z,ignzshk6,serial-reaction-time,1,R,1,1,57,4321,0,2,279.1000000014901,212,T
2023-04-12T23:45:02Z,ignzshk6,serial-reaction-time,1,P,1,1,58,4321,0,4,372.3999999985099,124,H
2023-04-12T23:45:03Z,ignzshk6,serial-reaction-time,1,R,1,1,59,4321,0,2,251.19999999925497,242,T
2023-04-12T23:45:03Z,ignzshk6,serial-reaction-time,1,P,1,1,60,4321,0,3,295.19999999925494,423,H
2023-04-12T23:45:04Z,ignzshk6,serial-reaction-time,1,R,1,1,61,4321,0,4,323,234,L
2023-04-12T23:45:04Z,ignzshk6,serial-reaction-time,1,P,1,1,62,4321,0,2,349.3999999985099,342,H
2023-04-12T23:45:05Z,ignzshk6,serial-reaction-time,1,R,1,1,63,4321,0,2,305.6000000014901,422,L
2023-04-12T23:45:05Z,ignzshk6,serial-reaction-time,1,P,1,1,64,4321,0,1,342.8999999985099,221,H
2023-04-12T23:45:06Z,ignzshk6,serial-reaction-time,1,R,1,1,65,4321,0,2,300.0999999977648,212,T
2023-04-12T23:45:06Z,ignzshk6,serial-reaction-time,1,P,1,1,66,4321,0,4,353.4000000022352,124,H
2023-04-12T23:45:06Z,ignzshk6,serial-reaction-time,1,R,1,1,67,4321,0,2,238.79999999701977,242,T
2023-04-12T23:45:07Z,ignzshk6,serial-reaction-time,1,P,1,1,68,4321,0,3,304.5,423,H
2023-04-12T23:45:07Z,ignzshk6,serial-reaction-time,1,R,1,1,69,4321,0,2,257.6000000014901,232,T
2023-04-12T23:45:08Z,ignzshk6,serial-reaction-time,1,P,1,1,70,4321,0,2,272.19999999925494,322,H
2023-04-12T23:45:08Z,ignzshk6,serial-reaction-time,1,R,1,1,71,4321,0,3,363.80000000074506,223,L
2023-04-12T23:45:09Z,ignzshk6,serial-reaction-time,1,P,1,1,72,4321,0,1,360.6000000014901,231,H
2023-04-12T23:45:09Z,ignzshk6,serial-reaction-time,1,R,1,1,73,4321,0,1,291.5,311,L
2023-04-12T23:45:10Z,ignzshk6,serial-reaction-time,1,P,1,1,74,4321,0,4,386.5,114,H
2023-04-12T23:45:10Z,ignzshk6,serial-reaction-time,1,R,1,1,75,4321,0,4,266.5,144,H
2023-04-12T23:45:11Z,ignzshk6,serial-reaction-time,1,P,1,1,76,4321,0,3,428.4000000022352,443,H
2023-04-12T23:45:11Z,ignzshk6,serial-reaction-time,1,R,1,1,77,4321,0,2,305.1000000014901,432,L
2023-04-12T23:45:11Z,ignzshk6,serial-reaction-time,1,P,1,1,78,4321,0,2,309,322,H
2023-04-12T23:45:12Z,ignzshk6,serial-reaction-time,1,R,1,1,79,4321,0,3,378,223,L
2023-04-12T23:45:12Z,ignzshk6,serial-reaction-time,1,P,1,1,80,4321,0,1,363,231,H
2023-04-12T23:45:17Z,ignzshk6,html-keyboard-response,NA,NA,NA,NA,NA,NA,NA,NA,NA,NA,NA
2023-04-12T23:45:21Z,ignzshk6,html-keyboard-response,NA,NA,NA,NA,NA,NA,NA,NA,NA,NA,NA
2023-04-12T23:45:22Z,ignzshk6,serial-reaction-time,1,R,2,1,1,4321,0,1,354.9000000022352,1,X
2023-04-12T23:45:22Z,ignzshk6,serial-reaction-time,NA,P,2,1,2,4321,0,4,375.80000000074506,14,X
2023-04-12T23:45:22Z,ignzshk6,serial-reaction-time,1,P,2,0,2,4321,0,4,438.8999999985099,14,X
2023-04-12T23:45:23Z,ignzshk6,serial-reaction-time,NA,R,2,1,3,4321,0,3,114.59999999776484,143,L
2023-04-12T23:45:23Z,ignzshk6,serial-reaction-time,1,R,2,0,3,4321,0,3,394.19999999552965,143,L
2023-04-12T23:45:23Z,ignzshk6,serial-reaction-time,1,P,2,1,4,4321,0,3,305.4000000022352,433,H
2023-04-12T23:45:24Z,ignzshk6,serial-reaction-time,1,R,2,1,5,4321,0,3,322.19999999925494,333,R
2023-04-12T23:45:24Z,ignzshk6,serial-reaction-time,1,P,2,1,6,4321,0,2,307.69999999925494,332,H
2023-04-12T23:45:25Z,ignzshk6,serial-reaction-time,1,R,2,1,7,4321,0,3,552,323,T
2023-04-12T23:45:25Z,ignzshk6,serial-reaction-time,1,P,2,1,8,4321,0,1,306,231,H
2023-04-12T23:45:26Z,ignzshk6,serial-reaction-time,NA,R,2,1,9,4321,0,3,235.80000000074503,313,T
2023-04-12T23:45:26Z,ignzshk6,serial-reaction-time,1,R,2,0,9,4321,0,3,472.6000000014901,313,T
2023-04-12T23:45:26Z,ignzshk6,serial-reaction-time,1,P,2,1,10,4321,0,4,296.69999999925494,134,H
2023-04-12T23:45:27Z,ignzshk6,serial-reaction-time,1,R,2,1,11,4321,0,4,225.60000000149012,344,L
2023-04-12T23:45:27Z,ignzshk6,serial-reaction-time,1,P,2,1,12,4321,0,3,347,443,H
2023-04-12T23:45:28Z,ignzshk6,serial-reaction-time,1,R,2,1,13,4321,0,3,316.19999999925494,433,H
2023-04-12T23:45:28Z,ignzshk6,serial-reaction-time,1,P,2,1,14,4321,0,2,363.30000000074506,332,H
2023-04-12T23:45:29Z,ignzshk6,serial-reaction-time,1,R,2,1,15,4321,0,2,184.69999999925497,322,H
2023-04-12T23:45:29Z,ignzshk6,serial-reaction-time,1,P,2,1,16,4321,0,1,515.1000000014901,221,H
2023-04-12T23:45:30Z,ignzshk6,serial-reaction-time,1,R,2,1,17,4321,0,2,347.6000000014901,212,T
2023-04-12T23:45:30Z,ignzshk6,serial-reaction-time,1,P,2,1,18,4321,0,4,353.9000000022352,124,H
2023-04-12T23:45:31Z,ignzshk6,serial-reaction-time,1,R,2,1,19,4321,0,1,384.9000000022352,241,H
2023-04-12T23:45:31Z,ignzshk6,serial-reaction-time,1,P,2,1,20,4321,0,3,301.19999999925494,413,H
2023-04-12T23:45:32Z,ignzshk6,serial-reaction-time,1,R,2,1,21,4321,0,1,378.19999999925494,131,T
2023-04-12T23:45:32Z,ignzshk6,serial-reaction-time,1,P,2,1,22,4321,0,2,306.29999999701977,312,H
2023-04-12T23:45:32Z,ignzshk6,serial-reaction-time,1,R,2,1,23,4321,0,2,210.69999999925497,122,L
2023-04-12T23:45:33Z,ignzshk6,serial-reaction-time,1,P,2,1,24,4321,0,1,390.4000000022352,221,H
2023-04-12T23:45:33Z,ignzshk6,serial-reaction-time,1,R,2,1,25,4321,0,3,405.5,213,L
2023-04-12T23:45:34Z,ignzshk6,serial-reaction-time,1,P,2,1,26,4321,0,4,340,134,H
2023-04-12T23:45:34Z,ignzshk6,serial-reaction-time,1,R,2,1,27,4321,0,3,376.6000000014901,343,T
2023-04-12T23:45:35Z,ignzshk6,serial-reaction-time,1,P,2,1,28,4321,0,3,334.8999999985099,433,H
2023-04-12T23:45:35Z,ignzshk6,serial-reaction-time,1,R,2,1,29,4321,0,4,384.5,334,L
2023-04-12T23:45:36Z,ignzshk6,serial-reaction-time,1,P,2,1,30,4321,0,2,314.8999999985099,342,H
2023-04-12T23:45:36Z,ignzshk6,serial-reaction-time,1,R,2,1,31,4321,0,2,187.19999999925497,422,L
2023-04-12T23:45:37Z,ignzshk6,serial-reaction-time,1,P,2,1,32,4321,0,1,331.8999999985099,221,H
2023-04-12T23:45:37Z,ignzshk6,serial-reaction-time,1,R,2,1,33,4321,0,4,374,214,L
2023-04-12T23:45:38Z,ignzshk6,serial-reaction-time,1,P,2,1,34,4321,0,4,322.0999999977648,144,H
2023-04-12T23:45:38Z,ignzshk6,serial-reaction-time,1,R,2,1,35,4321,0,2,340.5999999977648,442,L
2023-04-12T23:45:39Z,ignzshk6,serial-reaction-time,1,P,2,1,36,4321,0,3,359.69999999925494,423,H
2023-04-12T23:45:39Z,ignzshk6,serial-reaction-time,1,R,2,1,37,4321,0,4,381.1000000014901,234,L
2023-04-12T23:45:40Z,ignzshk6,serial-reaction-time,1,P,2,1,38,4321,0,2,371.69999999925494,342,H
2023-04-12T23:45:40Z,ignzshk6,serial-reaction-time,1,R,2,1,39,4321,0,1,291.69999999925494,421,L
2023-04-12T23:45:40Z,ignzshk6,serial-reaction-time,1,P,2,1,40,4321,0,1,250.59999999776483,211,H
2023-04-12T23:45:41Z,ignzshk6,serial-reaction-time,1,R,2,1,41,4321,0,1,329.30000000074506,111,R
2023-04-12T23:45:41Z,ignzshk6,serial-reaction-time,1,P,2,1,42,4321,0,4,373.30000000074506,114,H
2023-04-12T23:45:42Z,ignzshk6,serial-reaction-time,1,R,2,1,43,4321,0,2,342.5,142,L
2023-04-12T23:45:42Z,ignzshk6,serial-reaction-time,1,P,2,1,44,4321,0,3,295,423,H
2023-04-12T23:45:43Z,ignzshk6,serial-reaction-time,1,R,2,1,45,4321,0,4,327.8999999985099,234,L
2023-04-12T23:45:43Z,ignzshk6,serial-reaction-time,1,P,2,1,46,4321,0,2,297.79999999701977,342,H
2023-04-12T23:45:44Z,ignzshk6,serial-reaction-time,1,R,2,1,47,4321,0,2,337.6000000014901,422,L
2023-04-12T23:45:44Z,ignzshk6,serial-reaction-time,1,P,2,1,48,4321,0,1,260.19999999925494,221,H
2023-04-12T23:45:44Z,ignzshk6,serial-reaction-time,NA,R,2,1,49,4321,0,3,286.3999999985099,213,L
2023-04-12T23:45:44Z,ignzshk6,serial-reaction-time,1,R,2,0,49,4321,0,3,372.9999999962747,213,L
2023-04-12T23:45:45Z,ignzshk6,serial-reaction-time,1,P,2,1,50,4321,0,4,395.80000000074506,134,H
2023-04-12T23:45:45Z,ignzshk6,serial-reaction-time,1,R,2,1,51,4321,0,2,254.30000000074503,342,H
2023-04-12T23:45:46Z,ignzshk6,serial-reaction-time,1,P,2,1,52,4321,0,3,342.69999999925494,423,H
2023-04-12T23:45:46Z,ignzshk6,serial-reaction-time,1,R,2,1,53,4321,0,2,284.8999999985099,232,T
2023-04-12T23:45:47Z,ignzshk6,serial-reaction-time,1,P,2,1,54,4321,0,2,302,322,H
2023-04-12T23:45:47Z,ignzshk6,serial-reaction-time,1,R,2,1,55,4321,0,4,493,224,L
2023-04-12T23:45:48Z,ignzshk6,serial-reaction-time,1,P,2,1,56,4321,0,1,407.1000000014901,241,H
2023-04-12T23:45:48Z,ignzshk6,serial-reaction-time,1,R,2,1,57,4321,0,3,305.69999999925494,413,H
2023-04-12T23:45:49Z,ignzshk6,serial-reaction-time,1,P,2,1,58,4321,0,4,325.0999999977648,134,H
2023-04-12T23:45:49Z,ignzshk6,serial-reaction-time,1,R,2,1,59,4321,0,1,276.19999999925494,341,L
2023-04-12T23:45:50Z,ignzshk6,serial-reaction-time,1,P,2,1,60,4321,0,3,315.80000000074506,413,H
2023-04-12T23:45:50Z,ignzshk6,serial-reaction-time,1,R,2,1,61,4321,0,2,264.79999999701977,132,L
2023-04-12T23:45:50Z,ignzshk6,serial-reaction-time,1,P,2,1,62,4321,0,2,292.80000000074506,322,H
2023-04-12T23:45:51Z,ignzshk6,serial-reaction-time,1,R,2,1,63,4321,0,1,381.9000000022352,221,H
2023-04-12T23:45:51Z,ignzshk6,serial-reaction-time,1,P,2,1,64,4321,0,1,240.59999999776483,211,H
2023-04-12T23:45:52Z,ignzshk6,serial-reaction-time,1,R,2,1,65,4321,0,3,357.8999999985099,113,L
2023-04-12T23:45:52Z,ignzshk6,serial-reaction-time,1,P,2,1,66,4321,0,4,363,134,H
2023-04-12T23:45:53Z,ignzshk6,serial-reaction-time,1,R,2,1,67,4321,0,4,243.80000000074503,344,L
2023-04-12T23:45:53Z,ignzshk6,serial-reaction-time,1,P,2,1,68,4321,0,3,483.30000000074506,443,H
2023-04-12T23:45:54Z,ignzshk6,serial-reaction-time,1,R,2,1,69,4321,0,3,441,433,H
2023-04-12T23:45:54Z,ignzshk6,serial-reaction-time,1,P,2,1,70,4321,0,2,398.80000000074506,332,H
2023-04-12T23:45:55Z,ignzshk6,serial-reaction-time,NA,R,2,1,71,4321,0,4,174.39999999850988,324,L
2023-04-12T23:45:55Z,ignzshk6,serial-reaction-time,1,R,2,0,71,4321,0,4,489.5,324,L
2023-04-12T23:45:56Z,ignzshk6,serial-reaction-time,1,P,2,1,72,4321,0,1,364.19999999925494,241,H
2023-04-12T23:45:56Z,ignzshk6,serial-reaction-time,1,R,2,1,73,4321,0,3,325.30000000074506,413,H
2023-04-12T23:45:57Z,ignzshk6,serial-reaction-time,1,P,2,1,74,4321,0,4,642.5999999977648,134,H
2023-04-12T23:45:57Z,ignzshk6,serial-reaction-time,1,R,2,1,75,4321,0,3,360.69999999925494,343,T
2023-04-12T23:45:58Z,ignzshk6,serial-reaction-time,1,P,2,1,76,4321,0,3,297.0999999977648,433,H
2023-04-12T23:45:58Z,ignzshk6,serial-reaction-time,1,R,2,1,77,4321,0,1,357.1000000014901,331,L
2023-04-12T23:45:59Z,ignzshk6,serial-reaction-time,1,P,2,1,78,4321,0,2,423.69999999925494,312,H
2023-04-12T23:45:59Z,ignzshk6,serial-reaction-time,1,R,2,1,79,4321,0,3,319.19999999925494,123,L
2023-04-12T23:46:00Z,ignzshk6,serial-reaction-time,1,P,2,1,80,4321,0,1,351.80000000074506,231,H
2023-04-12T23:46:05Z,ignzshk6,html-keyboard-response,NA,NA,NA,NA,NA,NA,NA,NA,NA,NA,NA
2023-04-12T23:46:07Z,ignzshk6,html-keyboard-response,NA,NA,NA,NA,NA,NA,NA,NA,NA,NA,NA
2023-04-12T23:46:08Z,ignzshk6,serial-reaction-time,1,R,3,1,1,4321,0,1,382.4000000022352,1,X
2023-04-12T23:46:09Z,ignzshk6,serial-reaction-time,1,P,3,1,2,4321,0,4,412.5,14,X
2023-04-12T23:46:09Z,ignzshk6,serial-reaction-time,1,R,3,1,3,4321,0,3,347.30000000074506,143,L
2023-04-12T23:46:09Z,ignzshk6,serial-reaction-time,1,P,3,1,4,4321,0,3,297.80000000074506,433,H
2023-04-12T23:46:10Z,ignzshk6,serial-reaction-time,1,R,3,1,5,4321,0,1,291.3999999985099,331,L
2023-04-12T23:46:10Z,ignzshk6,serial-reaction-time,1,P,3,1,6,4321,0,2,309.19999999925494,312,H
2023-04-12T23:46:11Z,ignzshk6,serial-reaction-time,1,R,3,1,7,4321,0,2,247.09999999776483,122,L
2023-04-12T23:46:11Z,ignzshk6,serial-reaction-time,1,P,3,1,8,4321,0,1,291.4000000022352,221,H
2023-04-12T23:46:12Z,ignzshk6,serial-reaction-time,1,R,3,1,9,4321,0,1,335.8999999985099,211,H
2023-04-12T23:46:12Z,ignzshk6,serial-reaction-time,1,P,3,1,10,4321,0,4,349.0999999977648,114,H
2023-04-12T23:46:12Z,ignzshk6,serial-reaction-time,1,R,3,1,11,4321,0,4,282.29999999701977,144,H
