datetime,id,trial_type,correct,p_or_r,block,first_response,trial_number,sequence,is_practice,correct_pos,cumulative_rt,actual_triplet,triplet_type
2023-04-27T23:50:00Z,yk3unkzo,fullscreen,NA,NA,NA,NA,NA,NA,NA,NA,NA,NA,NA
2023-04-27T23:50:09Z,yk3unkzo,html-keyboard-response,NA,NA,NA,NA,NA,NA,NA,NA,NA,NA,NA
2023-04-27T23:50:10Z,yk3unkzo,serial-reaction-time,1,R,1,1,1,3214,0,1,574.5,1,X
2023-04-27T23:50:11Z,yk3unkzo,serial-reaction-time,1,P,1,1,2,3214,0,3,371.0999999996274,13,X
2023-04-27T23:50:11Z,yk3unkzo,serial-reaction-time,1,R,1,1,3,3214,0,3,260,133,L
2023-04-27T23:50:12Z,yk3unkzo,serial-reaction-time,1,P,1,1,4,3214,0,2,294.5,332,H
2023-04-27T23:50:12Z,yk3unkzo,serial-reaction-time,1,R,1,1,5,3214,0,2,231.5,322,H
2023-04-27T23:50:13Z,yk3unkzo,serial-reaction-time,1,P,1,1,6,3214,0,1,368.9000000003726,221,H
2023-04-27T23:50:13Z,yk3unkzo,serial-reaction-time,1,R,1,1,7,3214,0,1,187.69999999925497,211,H
2023-04-27T23:50:14Z,yk3unkzo,serial-reaction-time,1,P,1,1,8,3214,0,4,459.30000000074506,114,H
2023-04-27T23:50:16Z,yk3unkzo,serial-reaction-time,1,R,1,1,9,3214,0,2,1822.0999999996277,142,L
2023-04-27T23:50:16Z,yk3unkzo,serial-reaction-time,1,P,1,1,10,3214,0,3,346.90000000037253,423,H
2023-04-27T23:50:17Z,yk3unkzo,serial-reaction-time,1,R,1,1,11,3214,0,2,369.80000000074506,232,T
2023-04-27T23:50:17Z,yk3unkzo,serial-reaction-time,1,P,1,1,12,3214,0,2,284.30000000074506,322,H
2023-04-27T23:50:18Z,yk3unkzo,serial-reaction-time,1,R,1,1,13,3214,0,4,408.1000000014901,224,L
2023-04-27T23:50:18Z,yk3unkzo,serial-reaction-time,1,P,1,1,14,3214,0,1,329.1000000014901,241,H
2023-04-27T23:50:18Z,yk3unkzo,serial-reaction-time,1,R,1,1,15,3214,0,1,220.7000000011176,411,L
2023-04-27T23:50:19Z,yk3unkzo,serial-reaction-time,1,P,1,1,16,3214,0,4,317.1000000014901,114,H
2023-04-27T23:50:19Z,yk3unkzo,serial-reaction-time,1,R,1,1,17,3214,0,2,370.69999999925494,142,L
2023-04-27T23:50:20Z,yk3unkzo,serial-reaction-time,1,P,1,1,18,3214,0,3,474.9000000003726,423,H
2023-04-27T23:50:20Z,yk3unkzo,serial-reaction-time,1,R,1,1,19,3214,0,4,322.09999999962747,234,L
2023-04-27T23:50:21Z,yk3unkzo,serial-reaction-time,1,P,1,1,20,3214,0,2,505.5,342,H
2023-04-27T23:50:21Z,yk3unkzo,serial-reaction-time,1,R,1,1,21,3214,0,2,209.30000000074503,422,L
2023-04-27T23:50:22Z,yk3unkzo,serial-reaction-time,1,P,1,1,22,3214,0,1,312.8999999985099,221,H
2023-04-27T23:50:22Z,yk3unkzo,serial-reaction-time,NA,R,1,1,23,3214,0,3,386,213,L
2023-04-27T23:50:23Z,yk3unkzo,serial-reaction-time,1,R,1,0,23,3214,0,3,787.6999999992549,213,L
2023-04-27T23:50:23Z,yk3unkzo,serial-reaction-time,1,P,1,1,24,3214,0,4,267.7999999988824,134,H
2023-04-27T23:50:24Z,yk3unkzo,serial-reaction-time,1,R,1,1,25,3214,0,4,276,344,L
2023-04-27T23:50:24Z,yk3unkzo,serial-reaction-time,1,P,1,1,26,3214,0,3,340.2999999988824,443,H
2023-04-27T23:50:25Z,yk3unkzo,serial-reaction-time,1,R,1,1,27,3214,0,4,376,434,T
2023-04-27T23:50:25Z,yk3unkzo,serial-reaction-time,1,P,1,1,28,3214,0,2,384.30000000074506,342,H
2023-04-27T23:50:26Z,yk3unkzo,serial-reaction-time,1,R,1,1,29,3214,0,1,277.90000000037253,421,L
2023-04-27T23:50:26Z,yk3unkzo,serial-reaction-time,1,P,1,1,30,3214,0,1,182.39999999850988,211,H
2023-04-27T23:50:26Z,yk3unkzo,serial-reaction-time,1,R,1,1,31,3214,0,1,261.7000000011176,111,R
2023-04-27T23:50:27Z,yk3unkzo,serial-reaction-time,NA,P,1,1,32,3214,0,4,379.7999999988824,114,H
2023-04-27T23:50:27Z,yk3unkzo,serial-reaction-time,1,P,1,0,32,3214,0,4,672.6999999992549,114,H
2023-04-27T23:50:28Z,yk3unkzo,serial-reaction-time,1,R,1,1,33,3214,0,1,392.0999999996274,141,T
2023-04-27T23:50:28Z,yk3unkzo,serial-reaction-time,NA,P,1,1,34,3214,0,3,203.69999999925497,413,H
2023-04-27T23:50:28Z,yk3unkzo,serial-reaction-time,1,P,1,0,34,3214,0,3,365.69999999925494,413,H
2023-04-27T23:50:29Z,yk3unkzo,serial-reaction-time,1,R,1,1,35,3214,0,3,320.1000000014901,133,L
2023-04-27T23:50:29Z,yk3unkzo,serial-reaction-time,1,P,1,1,36,3214,0,2,341.09999999962747,332,H
2023-04-27T23:50:29Z,yk3unkzo,serial-reaction-time,1,R,1,1,37,3214,0,4,292.2000000011176,324,L
2023-04-27T23:50:30Z,yk3unkzo,serial-reaction-time,1,P,1,1,38,3214,0,1,374.5,241,H
2023-04-27T23:50:31Z,yk3unkzo,serial-reaction-time,1,R,1,1,39,3214,0,2,641.2000000011176,412,L
2023-04-27T23:50:31Z,yk3unkzo,serial-reaction-time,1,P,1,1,40,3214,0,4,329,124,H
2023-04-27T23:50:32Z,yk3unkzo,serial-reaction-time,1,R,1,1,41,3214,0,1,397.9000000003726,241,H
2023-04-27T23:50:32Z,yk3unkzo,serial-reaction-time,NA,P,1,1,42,3214,0,3,410,413,H
2023-04-27T23:50:33Z,yk3unkzo,serial-reaction-time,1,P,1,0,42,3214,0,3,788,413,H
2023-04-27T23:50:33Z,yk3unkzo,serial-reaction-time,1,R,1,1,43,3214,0,4,355.90000000037253,134,H
2023-04-27T23:50:34Z,yk3unkzo,serial-reaction-time,1,P,1,1,44,3214,0,2,369.19999999925494,342,H
2023-04-27T23:50:34Z,yk3unkzo,serial-reaction-time,1,R,1,1,45,3214,0,1,354,421,L
2023-04-27T23:50:35Z,yk3unkzo,serial-reaction-time,1,P,1,1,46,3214,0,1,267.1000000014901,211,H
2023-04-27T23:50:35Z,yk3unkzo,serial-reaction-time,1,R,1,1,47,3214,0,4,354.59999999962747,114,H
2023-04-27T23:50:35Z,yk3unkzo,serial-reaction-time,1,P,1,1,48,3214,0,4,340.5,144,H
2023-04-27T23:50:36Z,yk3unkzo,serial-reaction-time,1,R,1,1,49,3214,0,1,378.2000000011176,441,L
2023-04-27T23:50:37Z,yk3unkzo,serial-reaction-time,1,P,1,1,50,3214,0,3,397.5,413,H
2023-04-27T23:50:37Z,yk3unkzo,serial-reaction-time,1,R,1,1,51,3214,0,3,313.40000000037253,133,L
2023-04-27T23:50:38Z,yk3unkzo,serial-reaction-time,1,P,1,1,52,3214,0,2,480.0999999996274,332,H
2023-04-27T23:50:38Z,yk3unkzo,serial-reaction-time,1,R,1,1,53,3214,0,2,284.5,322,H
2023-04-27T23:50:39Z,yk3unkzo,serial-reaction-time,1,P,1,1,54,3214,0,1,426.9000000003726,221,H
2023-04-27T23:50:39Z,yk3unkzo,serial-reaction-time,1,R,1,1,55,3214,0,2,490.5,212,T
2023-04-27T23:50:40Z,yk3unkzo,serial-reaction-time,1,P,1,1,56,3214,0,4,441.1000000014901,124,H
2023-04-27T23:50:40Z,yk3unkzo,serial-reaction-time,NA,R,1,1,57,3214,0,1,486,241,H
2023-04-27T23:50:41Z,yk3unkzo,serial-reaction-time,1,R,1,0,57,3214,0,1,785.9000000003725,241,H
2023-04-27T23:50:41Z,yk3unkzo,serial-reaction-time,1,P,1,1,58,3214,0,3,544.0999999996275,413,H
2023-04-27T23:50:42Z,yk3unkzo,serial-reaction-time,1,R,1,1,59,3214,0,3,368.5,133,L
2023-04-27T23:50:43Z,yk3unkzo,serial-reaction-time,1,P,1,1,60,3214,0,2,535.5,332,H
2023-04-27T23:50:43Z,yk3unkzo,serial-reaction-time,1,R,1,1,61,3214,0,4,358.90000000037253,324,L
2023-04-27T23:50:43Z,yk3unkzo,serial-reaction-time,1,P,1,1,62,3214,0,1,359.30000000074506,241,H
2023-04-27T23:50:44Z,yk3unkzo,serial-reaction-time,1,R,1,1,63,3214,0,1,355.7999999988824,411,L
2023-04-27T23:50:44Z,yk3unkzo,serial-reaction-time,1,P,1,1,64,3214,0,4,380,114,H
2023-04-27T23:50:45Z,yk3unkzo,serial-reaction-time,1,R,1,1,65,3214,0,4,289.90000000037253,144,H
2023-04-27T23:50:45Z,yk3unkzo,serial-reaction-time,1,P,1,1,66,3214,0,3,389.69999999925494,443,H
2023-04-27T23:50:46Z,yk3unkzo,serial-reaction-time,1,R,1,1,67,3214,0,2,449.5,432,L
2023-04-27T23:50:46Z,yk3unkzo,serial-reaction-time,1,P,1,1,68,3214,0,2,266.90000000037253,322,H
2023-04-27T23:50:47Z,yk3unkzo,serial-reaction-time,1,R,1,1,69,3214,0,4,327.30000000074506,224,L
2023-04-27T23:50:47Z,yk3unkzo,serial-reaction-time,1,P,1,1,70,3214,0,1,311.5,241,H
2023-04-27T23:50:48Z,yk3unkzo,serial-reaction-time,1,R,1,1,71,3214,0,4,342.5,414,T
2023-04-27T23:50:48Z,yk3unkzo,serial-reaction-time,1,P,1,1,72,3214,0,4,329.5,144,H
2023-04-27T23:50:49Z,yk3unkzo,serial-reaction-time,1,R,1,1,73,3214,0,1,289.90000000037253,441,L
2023-04-27T23:50:49Z,yk3unkzo,serial-reaction-time,NA,P,1,1,74,3214,0,3,324.09999999962747,413,H
2023-04-27T23:50:50Z,yk3unkzo,serial-reaction-time,1,P,1,0,74,3214,0,3,727.7999999988824,413,H
2023-04-27T23:50:50Z,yk3unkzo,serial-reaction-time,1,R,1,1,75,3214,0,3,235.7999999988824,133,L
2023-04-27T23:50:50Z,yk3unkzo,serial-reaction-time,1,P,1,1,76,3214,0,2,401.5999999996274,332,H
2023-04-27T23:50:51Z,yk3unkzo,serial-reaction-time,1,R,1,1,77,3214,0,3,516.9000000003725,323,T
2023-04-27T23:50:52Z,yk3unkzo,serial-reaction-time,1,P,1,1,78,3214,0,1,342.09999999962747,231,H
2023-04-27T23:50:52Z,yk3unkzo,serial-reaction-time,1,R,1,1,79,3214,0,3,299.09999999962747,313,T
2023-04-27T23:50:52Z,yk3unkzo,serial-reaction-time,1,P,1,1,80,3214,0,4,337.2000000011176,134,H
2023-04-27T23:50:57Z,yk3unkzo,html-keyboard-response,NA,NA,NA,NA,NA,NA,NA,NA,NA,NA,NA
2023-04-27T23:50:58Z,yk3unkzo,html-keyboard-response,NA,NA,NA,NA,NA,NA,NA,NA,NA,NA,NA
2023-04-27T23:51:00Z,yk3unkzo,serial-reaction-time,1,R,2,1,1,3214,0,1,483.19999999925494,1,X
2023-04-27T23:51:00Z,yk3unkzo,serial-reaction-time,1,P,2,1,2,3214,0,3,366,13,X
2023-04-27T23:51:01Z,yk3unkzo,serial-reaction-time,1,R,2,1,3,3214,0,1,321,131,T
2023-04-27T23:51:01Z,yk3unkzo,serial-reaction-time,NA,P,2,1,4,3214,0,2,317,312,H
2023-04-27T23:51:01Z,yk3unkzo,serial-reaction-time,1,P,2,0,4,3214,0,2,599.3000000007451,312,H
2023-04-27T23:51:02Z,yk3unkzo,serial-reaction-time,1,R,2,1,5,3214,0,3,362.8999999985099,123,L
2023-04-27T23:51:02Z,yk3unkzo,serial-reaction-time,1,P,2,1,6,3214,0,1,366.4000000003726,231,H
2023-04-27T23:51:03Z,yk3unkzo,serial-reaction-time,1,R,2,1,7,3214,0,4,369.80000000074506,314,L
2023-04-27T23:51:03Z,yk3unkzo,serial-reaction-time,1,P,2,1,8,3214,0,4,279.7999999988824,144,H
2023-04-27T23:51:04Z,yk3unkzo,serial-reaction-time,1,R,2,1,9,3214,0,2,444.19999999925494,442,L
2023-04-27T23:51:04Z,yk3unkzo,serial-reaction-time,1,P,2,1,10,3214,0,3,384.5999999996274,423,H
2023-04-27T23:51:05Z,yk3unkzo,serial-reaction-time,1,R,2,1,11,3214,0,1,330.7999999988824,231,H
2023-04-27T23:51:05Z,yk3unkzo,serial-reaction-time,1,P,2,1,12,3214,0,2,575.9000000003725,312,H
2023-04-27T23:51:06Z,yk3unkzo,serial-reaction-time,1,R,2,1,13,3214,0,2,331.5,122,L
2023-04-27T23:51:06Z,yk3unkzo,serial-reaction-time,1,P,2,1,14,3214,0,1,397.2000000011176,221,H
2023-04-27T23:51:07Z,yk3unkzo,serial-reaction-time,1,R,2,1,15,3214,0,1,289.59999999962747,211,H
2023-04-27T23:51:07Z,yk3unkzo,serial-reaction-time,1,P,2,1,16,3214,0,4,384.4000000003726,114,H
2023-04-27T23:51:08Z,yk3unkzo,serial-reaction-time,1,R,2,1,17,3214,0,3,400.2999999988824,143,L
2023-04-27T23:51:08Z,yk3unkzo,serial-reaction-time,1,P,2,1,18,3214,0,3,326.2999999988824,433,H
2023-04-27T23:51:09Z,yk3unkzo,serial-reaction-time,1,R,2,1,19,3214,0,4,318,334,L
2023-04-27T23:51:09Z,yk3unkzo,serial-reaction-time,1,P,2,1,20,3214,0,2,567.2000000011176,342,H
2023-04-27T23:51:10Z,yk3unkzo,serial-reaction-time,1,R,2,1,21,3214,0,4,370.1000000014901,424,T
2023-04-27T23:51:11Z,yk3unkzo,serial-reaction-time,1,P,2,1,22,3214,0,1,390.7000000011176,241,H
2023-04-27T23:51:11Z,yk3unkzo,serial-reaction-time,1,R,2,1,23,3214,0,2,515.4000000003725,412,L
2023-04-27T23:51:12Z,yk3unkzo,serial-reaction-time,1,P,2,1,24,3214,0,4,330.69999999925494,124,H
2023-04-27T23:51:12Z,yk3unkzo,serial-reaction-time,1,R,2,1,25,3214,0,3,432.5,243,L
2023-04-27T23:51:13Z,yk3unkzo,serial-reaction-time,1,P,2,1,26,3214,0,3,335.69999999925494,433,H
2023-04-27T23:51:13Z,yk3unkzo,serial-reaction-time,1,R,2,1,27,3214,0,4,344.40000000037253,334,L
2023-04-27T23:51:14Z,yk3unkzo,serial-reaction-time,1,P,2,1,28,3214,0,2,388.0999999996274,342,H
2023-04-27T23:51:14Z,yk3unkzo,serial-reaction-time,1,R,2,1,29,3214,0,3,420.4000000003726,423,H
2023-04-27T23:51:15Z,yk3unkzo,serial-reaction-time,1,P,2,1,30,3214,0,1,376.0999999996274,231,H
2023-04-27T23:51:15Z,yk3unkzo,serial-reaction-time,NA,R,2,1,31,3214,0,2,416.0999999996274,312,H
2023-04-27T23:51:16Z,yk3unkzo,serial-reaction-time,1,R,2,0,31,3214,0,2,707.0999999996275,312,H
2023-04-27T23:51:16Z,yk3unkzo,serial-reaction-time,NA,P,2,1,32,3214,0,4,356,124,H
2023-04-27T23:51:16Z,yk3unkzo,serial-reaction-time,1,P,2,0,32,3214,0,4,555,124,H
2023-04-27T23:51:17Z,yk3unkzo,serial-reaction-time,1,R,2,1,33,3214,0,3,396.19999999925494,243,L
2023-04-27T23:51:17Z,yk3unkzo,serial-reaction-time,1,P,2,1,34,3214,0,3,331.7000000011176,433,H
2023-04-27T23:51:18Z,yk3unkzo,serial-reaction-time,1,R,2,1,35,3214,0,3,303.5,333,R
2023-04-27T23:51:18Z,yk3unkzo,serial-reaction-time,1,P,2,1,36,3214,0,2,389.7999999988824,332,H
2023-04-27T23:51:19Z,yk3unkzo,serial-reaction-time,1,R,2,1,37,3214,0,3,352.2999999988824,323,T
2023-04-27T23:51:19Z,yk3unkzo,serial-reaction-time,1,P,2,1,38,3214,0,1,322.09999999962747,231,H
2023-04-27T23:51:20Z,yk3unkzo,serial-reaction-time,1,R,2,1,39,3214,0,1,333.5,311,L
2023-04-27T23:51:20Z,yk3unkzo,serial-reaction-time,1,P,2,1,40,3214,0,4,394.5,114,H
2023-04-27T23:51:21Z,yk3unkzo,serial-reaction-time,1,R,2,1,41,3214,0,1,406.5,141,T
2023-04-27T23:51:21Z,yk3unkzo,serial-reaction-time,1,P,2,1,42,3214,0,3,371.5999999996274,413,H
2023-04-27T23:51:22Z,yk3unkzo,serial-reaction-time,1,R,2,1,43,3214,0,2,375.19999999925494,132,L
2023-04-27T23:51:22Z,yk3unkzo,serial-reaction-time,1,P,2,1,44,3214,0,2,481,322,H
2023-04-27T23:51:23Z,yk3unkzo,serial-reaction-time,1,R,2,1,45,3214,0,2,330.59999999962747,222,R
2023-04-27T23:51:23Z,yk3unkzo,serial-reaction-time,1,P,2,1,46,3214,0,1,345.6000000014901,221,H
2023-04-27T23:51:24Z,yk3unkzo,serial-reaction-time,1,R,2,1,47,3214,0,2,362.5999999996274,212,T
2023-04-27T23:51:24Z,yk3unkzo,serial-reaction-time,1,P,2,1,48,3214,0,4,381.5999999996274,124,H
2023-04-27T23:51:25Z,yk3unkzo,serial-reaction-time,1,R,2,1,49,3214,0,3,379.69999999925494,243,L
2023-04-27T23:51:25Z,yk3unkzo,serial-reaction-time,1,P,2,1,50,3214,0,3,338.5,433,H
2023-04-27T23:51:26Z,yk3unkzo,serial-reaction-time,1,R,2,1,51,3214,0,4,385,334,L
2023-04-27T23:51:26Z,yk3unkzo,serial-reaction-time,1,P,2,1,52,3214,0,2,392.9000000003726,342,H
2023-04-27T23:51:27Z,yk3unkzo,serial-reaction-time,1,R,2,1,53,3214,0,4,365.2000000011176,424,T
2023-04-27T23:51:27Z,yk3unkzo,serial-reaction-time,1,P,2,1,54,3214,0,1,402.80000000074506,241,H
2023-04-27T23:51:28Z,yk3unkzo,serial-reaction-time,1,R,2,1,55,3214,0,1,333.90000000037253,411,L
2023-04-27T23:51:28Z,yk3unkzo,serial-reaction-time,1,P,2,1,56,3214,0,4,364.5999999996274,114,H
2023-04-27T23:51:29Z,yk3unkzo,serial-reaction-time,1,R,2,1,57,3214,0,1,362.2000000011176,141,T
2023-04-27T23:51:29Z,yk3unkzo,serial-reaction-time,1,P,2,1,58,3214,0,3,427.4000000003726,413,H
2023-04-27T23:51:30Z,yk3unkzo,serial-reaction-time,1,R,2,1,59,3214,0,4,344.40000000037253,134,H
2023-04-27T23:51:30Z,yk3unkzo,serial-reaction-time,NA,P,2,1,60,3214,0,2,360.6000000014901,342,H
2023-04-27T23:51:31Z,yk3unkzo,serial-reaction-time,1,P,2,0,60,3214,0,2,749.3000000007451,342,H
2023-04-27T23:51:31Z,yk3unkzo,serial-reaction-time,1,R,2,1,61,3214,0,4,355.2999999988824,424,T
2023-04-27T23:51:32Z,yk3unkzo,serial-reaction-time,1,P,2,1,62,3214,0,1,422.9000000003726,241,H
2023-04-27T23:51:32Z,yk3unkzo,serial-reaction-time,1,R,2,1,63,3214,0,3,413.0999999996274,413,H
2023-04-27T23:51:33Z,yk3unkzo,serial-reaction-time,NA,P,2,1,64,3214,0,4,367.5,134,H
2023-04-27T23:51:33Z,yk3unkzo,serial-reaction-time,1,P,2,0,64,3214,0,4,678.5,134,H
2023-04-27T23:51:34Z,yk3unkzo,serial-reaction-time,1,R,2,1,65,3214,0,2,415.19999999925494,342,H
2023-04-27T23:51:34Z,yk3unkzo,serial-reaction-time,1,P,2,1,66,3214,0,3,456.80000000074506,423,H
2023-04-27T23:51:35Z,yk3unkzo,serial-reaction-time,1,R,2,1,67,3214,0,4,319.40000000037253,234,L
2023-04-27T23:51:35Z,yk3unkzo,serial-reaction-time,NA,P,2,1,68,3214,0,2,365.5999999996274,342,H
2023-04-27T23:51:35Z,yk3unkzo,serial-reaction-time,1,P,2,0,68,3214,0,2,674.3999999985099,342,H
2023-04-27T23:51:36Z,yk3unkzo,serial-reaction-time,1,R,2,1,69,3214,0,2,315,422,L
2023-04-27T23:51:36Z,yk3unkzo,serial-reaction-time,1,P,2,1,70,3214,0,1,375.4000000003726,221,H
2023-04-27T23:51:37Z,yk3unkzo,serial-reaction-time,1,R,2,1,71,3214,0,4,384.3999999985099,214,L
2023-04-27T23:51:37Z,yk3unkzo,serial-reaction-time,1,P,2,1,72,3214,0,4,369.7000000011176,144,H
2023-04-27T23:51:38Z,yk3unkzo,serial-reaction-time,1,R,2,1,73,3214,0,1,354.2000000011176,441,L
2023-04-27T23:51:39Z,yk3unkzo,serial-reaction-time,1,P,2,1,74,3214,0,3,480.5999999996274,413,H
2023-04-27T23:51:39Z,yk3unkzo,serial-reaction-time,1,R,2,1,75,3214,0,4,313.69999999925494,134,H
2023-04-27T23:51:40Z,yk3unkzo,serial-reaction-time,1,P,2,1,76,3214,0,2,419.7000000011176,342,H
2023-04-27T23:51:40Z,yk3unkzo,serial-reaction-time,1,R,2,1,77,3214,0,1,351.69999999925494,421,L
2023-04-27T23:51:40Z,yk3unkzo,serial-reaction-time,1,P,2,1,78,3214,0,1,317,211,H
2023-04-27T23:51:41Z,yk3unkzo,serial-reaction-time,1,R,2,1,79,3214,0,1,272.19999999925494,111,R
2023-04-27T23:51:41Z,yk3unkzo,serial-reaction-time,1,P,2,1,80,3214,0,4,400,114,H
2023-04-27T23:51:46Z,yk3unkzo,html-keyboard-response,NA,NA,NA,NA,NA,NA,NA,NA,NA,NA,NA
2023-04-27T23:51:47Z,yk3unkzo,html-keyboard-response,NA,NA,NA,NA,NA,NA,NA,NA,NA,NA,NA
2023-04-27T23:51:48Z,yk3unkzo,serial-reaction-time,1,R,3,1,1,3214,0,2,406.19999999925494,2,X
2023-04-27T23:51:49Z,yk3unkzo,serial-reaction-time,1,P,3,1,2,3214,0,3,399.5999999996274,23,X
2023-04-27T23:51:49Z,yk3unkzo,serial-reaction-time,1,R,3,1,3,3214,0,3,252,233,L
2023-04-27T23:51:50Z,yk3unkzo,serial-reaction-time,1,P,3,1,4,3214,0,2,350.69999999925494,332,H
2023-04-27T23:51:50Z,yk3unkzo,serial-reaction-time,1,R,3,1,5,3214,0,4,349.59999999962747,324,L
2023-04-27T23:51:51Z,yk3unkzo,serial-reaction-time,1,P,3,1,6,3214,0,1,353.30000000074506,241,H
2023-04-27T23:51:51Z,yk3unkzo,serial-reaction-time,1,R,3,1,7,3214,0,4,340.7999999988824,414,T
2023-04-27T23:51:52Z,yk3unkzo,serial-reaction-time,1,P,3,1,8,3214,0,4,314.1000000014901,144,H
2023-04-27T23:51:52Z,yk3unkzo,serial-reaction-time,1,R,3,1,9,3214,0,1,394.69999999925494,441,L
2023-04-27T23:51:53Z,yk3unkzo,serial-reaction-time,1,P,3,1,10,3214,0,3,342.69999999925494,413,H
2023-04-27T23:51:53Z,yk3unkzo,serial-reaction-time,1,R,3,1,11,3214,0,4,329.5,134,H
2023-04-27T23:51:54Z,yk3unkzo,serial-reaction-time,1,P,3,1,12,3214,0,2,391.30000000074506,342,H
2023-04-27T23:51:54Z,yk3unkzo,serial-reaction-time,1,R,3,1,13,3214,0,4,376.0999999996274,424,T
2023-04-27T23:51:55Z,yk3unkzo,serial-reaction-time,1,P,3,1,14,3214,0,1,316.59999999962747,241,H
2023-04-27T23:51:55Z,yk3unkzo,serial-reaction-time,1,R,3,1,15,3214,0,3,343,413,H
2023-04-27T23:51:56Z,yk3unkzo,serial-reaction-time,1,P,3,1,16,3214,0,4,393.9000000003726,134,H
2023-04-27T23:51:56Z,yk3unkzo,serial-reaction-time,1,R,3,1,17,3214,0,3,409.9000000003726,343,T
2023-04-27T23:51:57Z,yk3unkzo,serial-reaction-time,1,P,3,1,18,3214,0,3,344,433,H
2023-04-27T23:51:57Z,yk3unkzo,serial-reaction-time,1,R,3,1,19,3214,0,4,298.2999999988824,334,L
2023-04-27T23:51:58Z,yk3unkzo,serial-reaction-time,1,P,3,1,20,3214,0,2,351.7999999988824,342,H
2023-04-27T23:51:58Z,yk3unkzo,serial-reaction-time,1,R,3,1,21,3214,0,4,317.30000000074506,424,T
2023-04-27T23:51:58Z,yk3unkzo,serial-reaction-time,1,P,3,1,22,3214,0,1,386.5999999996274,241,H
2023-04-27T23:51:59Z,yk3unkzo,serial-reaction-time,1,R,3,1,23,3214,0,4,421.5,414,T
2023-04-27T23:51:59Z,yk3unkzo,serial-reaction-time,1,P,3,1,24,3214,0,4,302.7000000011176,144,H
2023-04-27T23:52:00Z,yk3unkzo,serial-reaction-time,1,R,3,1,25,3214,0,4,326.59999999962747,444,R
2023-04-27T23:52:00Z,yk3unkzo,serial-reaction-time,1,P,3,1,26,3214,0,3,377.2000000011176,443,H
2023-04-27T23:52:01Z,yk3unkzo,serial-reaction-time,1,R,3,1,27,3214,0,3,334.5,433,H
2023-04-27T23:52:01Z,yk3unkzo,serial-reaction-time,NA,P,3,1,28,3214,0,2,353.30000000074506,332,H
2023-04-27T23:52:02Z,yk3unkzo,serial-reaction-time,1,P,3,0,28,3214,0,2,618.0000000018626,332,H
2023-04-27T23:52:02Z,yk3unkzo,serial-reaction-time,1,R,3,1,29,3214,0,3,467.4000000003726,323,T
2023-04-27T23:52:03Z,yk3unkzo,serial-reaction-time,1,P,3,1,30,3214,0,1,355.90000000037253,231,H
2023-04-27T23:52:03Z,yk3unkzo,serial-reaction-time,NA,R,3,1,31,3214,0,3,349.69999999925494,313,T
2023-04-27T23:52:04Z,yk3unkzo,serial-reaction-time,1,R,3,0,31,3214,0,3,629,313,T
2023-04-27T23:52:04Z,yk3unkzo,serial-reaction-time,1,P,3,1,32,3214,0,4,346.5,134,H
2023-04-27T23:52:04Z,yk3unkzo,serial-reaction-time,NA,R,3,1,33,3214,0,2,371.9000000003726,342,H
2023-04-27T23:52:05Z,yk3unkzo,serial-reaction-time,1,R,3,0,33,3214,0,2,634.5,342,H
2023-04-27T23:52:05Z,yk3unkzo,serial-reaction-time,1,P,3,1,34,3214,0,3,393.1000000014901,423,H
2023-04-27T23:52:06Z,yk3unkzo,serial-reaction-time,1,R,3,1,35,3214,0,4,342.59999999962747,234,L
2023-04-27T23:52:06Z,yk3unkzo,serial-reaction-time,NA,P,3,1,36,3214,0,2,385.6000000014901,342,H
2023-04-27T23:52:07Z,yk3unkzo,serial-reaction-time,1,P,3,0,36,3214,0,2,634.3000000026077,342,H
2023-04-27T23:52:07Z,yk3unkzo,serial-reaction-time,1,R,3,1,37,3214,0,4,534.5,424,T
2023-04-27T23:52:08Z,yk3unkzo,serial-reaction-time,1,P,3,1,38,3214,0,1,413.80000000074506,241,H
2023-04-27T23:52:09Z,yk3unkzo,serial-reaction-time,1,R,3,1,39,3214,0,3,687.7999999988824,413,H
2023-04-27T23:52:09Z,yk3unkzo,serial-reaction-time,1,P,3,1,40,3214,0,4,309,134,H
2023-04-27T23:52:10Z,yk3unkzo,serial-reaction-time,1,R,3,1,41,3214,0,2,373.5,342,H
2023-04-27T23:52:10Z,yk3unkzo,serial-reaction-time,1,P,3,1,42,3214,0,3,419.1000000014901,423,H
2023-04-27T23:52:11Z,yk3unkzo,serial-reaction-time,1,R,3,1,43,3214,0,2,344.19999999925494,232,T
2023-04-27T23:52:11Z,yk3unkzo,serial-reaction-time,1,P,3,1,44,3214,0,2,374.19999999925494,322,H
2023-04-27T23:52:12Z,yk3unkzo,serial-reaction-time,1,R,3,1,45,3214,0,4,357.5,224,L
2023-04-27T23:52:12Z,yk3unkzo,serial-reaction-time,1,P,3,1,46,3214,0,1,497.4000000003726,241,H
2023-04-27T23:52:13Z,yk3unkzo,serial-reaction-time,1,R,3,1,47,3214,0,2,434.9000000003726,412,L
2023-04-27T23:52:13Z,yk3unkzo,serial-reaction-time,1,P,3,1,48,3214,0,4,337.5,124,H
2023-04-27T23:52:14Z,yk3unkzo,serial-reaction-time,1,R,3,1,49,3214,0,4,359.19999999925494,244,L
2023-04-27T23:52:14Z,yk3unkzo,serial-reaction-time,1,P,3,1,50,3214,0,3,374.19999999925494,443,H
2023-04-27T23:52:15Z,yk3unkzo,serial-reaction-time,1,R,3,1,51,3214,0,4,360.09999999962747,434,T
2023-04-27T23:52:15Z,yk3unkzo,serial-reaction-time,1,P,3,1,52,3214,0,2,374.7999999988824,342,H
2023-04-27T23:52:16Z,yk3unkzo,serial-reaction-time,1,R,3,1,53,3214,0,2,375.7000000011176,422,L
2023-04-27T23:52:16Z,yk3unkzo,serial-reaction-time,1,P,3,1,54,3214,0,1,372.5999999996274,221,H
2023-04-27T23:52:17Z,yk3unkzo,serial-reaction-time,1,R,3,1,55,3214,0,3,532,213,L
2023-04-27T23:52:17Z,yk3unkzo,serial-reaction-time,1,P,3,1,56,3214,0,4,378.5,134,H
2023-04-27T23:52:18Z,yk3unkzo,serial-reaction-time,1,R,3,1,57,3214,0,2,511.9000000003726,342,H
2023-04-27T23:52:19Z,yk3unkzo,serial-reaction-time,1,P,3,1,58,3214,0,3,394.30000000074506,423,H
2023-04-27T23:52:19Z,yk3unkzo,serial-reaction-time,1,R,3,1,59,3214,0,1,352.40000000037253,231,H
2023-04-27T23:52:20Z,yk3unkzo,serial-reaction-time,1,P,3,1,60,3214,0,2,513.9000000003725,312,H
2023-04-27T23:52:20Z,yk3unkzo,serial-reaction-time,1,R,3,1,61,3214,0,4,523.8000000007451,124,H
2023-04-27T23:52:21Z,yk3unkzo,serial-reaction-time,1,P,3,1,62,3214,0,1,546.7000000011176,241,H
2023-04-27T23:52:22Z,yk3unkzo,serial-reaction-time,NA,R,3,1,63,3214,0,4,409.69999999925494,414,T
2023-04-27T23:52:22Z,yk3unkzo,serial-reaction-time,1,R,3,0,63,3214,0,4,741.3999999985099,414,T
2023-04-27T23:52:22Z,yk3unkzo,serial-reaction-time,1,P,3,1,64,3214,0,4,358.19999999925494,144,H
2023-04-27T23:52:23Z,yk3unkzo,serial-reaction-time,1,R,3,1,65,3214,0,4,308.59999999962747,444,R
2023-04-27T23:52:23Z,yk3unkzo,serial-reaction-time,1,P,3,1,66,3214,0,3,428,443,H
2023-04-27T23:52:24Z,yk3unkzo,serial-reaction-time,1,R,3,1,67,3214,0,1,407.9000000003726,431,L
2023-04-27T23:52:25Z,yk3unkzo,serial-reaction-time,1,P,3,1,68,3214,0,2,480.5999999996274,312,H
2023-04-27T23:52:25Z,yk3unkzo,serial-reaction-time,1,R,3,1,69,3214,0,1,449,121,T
2023-04-27T23:52:26Z,yk3unkzo,serial-reaction-time,1,P,3,1,70,3214,0,1,343.59999999962747,211,H
2023-04-27T23:52:26Z,yk3unkzo,serial-reaction-time,1,R,3,1,71,3214,0,4,416.5,114,H
2023-04-27T23:52:27Z,yk3unkzo,serial-reaction-time,1,P,3,1,72,3214,0,4,321.7999999988824,144,H
2023-04-27T23:52:27Z,yk3unkzo,serial-reaction-time,1,R,3,1,73,3214,0,4,343.7000000011176,444,R
2023-04-27T23:52:28Z,yk3unkzo,serial-reaction-time,1,P,3,1,74,3214,0,3,411.9000000003726,443,H
2023-04-27T23:52:28Z,yk3unkzo,serial-reaction-time,1,R,3,1,75,3214,0,2,432,432,L
2023-04-27T23:52:29Z,yk3unkzo,serial-reaction-time,1,P,3,1,76,3214,0,2,362,322,H
2023-04-27T23:52:29Z,yk3unkzo,serial-reaction-time,1,R,3,1,77,3214,0,1,309.59999999962747,221,H
2023-04-27T23:52:30Z,yk3unkzo,serial-reaction-time,1,P,3,1,78,3214,0,1,332.90000000037253,211,H
2023-04-27T23:52:30Z,yk3unkzo,serial-reaction-time,1,R,3,1,79,3214,0,3,631.6999999992549,113,L
2023-04-27T23:52:31Z,yk3unkzo,serial-reaction-time,1,P,3,1,80,3214,0,4,431.5,134,H
2023-04-27T23:52:36Z,yk3unkzo,html-keyboard-response,NA,NA,NA,NA,NA,NA,NA,NA,NA,NA,NA
2023-04-27T23:52:36Z,yk3unkzo,html-keyboard-response,NA,NA,NA,NA,NA,NA,NA,NA,NA,NA,NA
2023-04-27T23:52:38Z,yk3unkzo,serial-reaction-time,1,R,4,1,1,3214,0,3,477,3,X
2023-04-27T23:52:38Z,yk3unkzo,serial-reaction-time,1,P,4,1,2,3214,0,3,217.30000000074503,33,X
2023-04-27T23:52:39Z,yk3unkzo,serial-reaction-time,1,R,4,1,3,3214,0,2,365.30000000074506,332,H
2023-04-27T23:52:39Z,yk3unkzo,serial-reaction-time,1,P,4,1,4,3214,0,2,183.5,322,H
2023-04-27T23:52:40Z,yk3unkzo,serial-reaction-time,1,R,4,1,5,3214,0,4,323.7000000011176,224,L
2023-04-27T23:52:40Z,yk3unkzo,serial-reaction-time,1,P,4,1,6,3214,0,1,358.59999999962747,241,H
2023-04-27T23:52:41Z,yk3unkzo,serial-reaction-time,1,R,4,1,7,3214,0,4,378.5,414,T
2023-04-27T23:52:41Z,yk3unkzo,serial-reaction-time,1,P,4,1,8,3214,0,4,244.5,144,H
2023-04-27T23:52:41Z,yk3unkzo,serial-reaction-time,1,R,4,1,9,3214,0,3,389.9000000003726,443,H
2023-04-27T23:52:42Z,yk3unkzo,serial-reaction-time,1,P,4,1,10,3214,0,3,301.7999999988824,433,H
2023-04-27T23:52:42Z,yk3unkzo,serial-reaction-time,1,R,4,1,11,3214,0,4,344.7999999988824,334,L
2023-04-27T23:52:43Z,yk3unkzo,serial-reaction-time,1,P,4,1,12,3214,0,2,547,342,H
2023-04-27T23:52:44Z,yk3unkzo,serial-reaction-time,1,R,4,1,13,3214,0,4,346.5,424,T
2023-04-27T23:52:44Z,yk3unkzo,serial-reaction-time,NA,P,4,1,14,3214,0,1,340.5,241,H
2023-04-27T23:52:44Z,yk3unkzo,serial-reaction-time,1,P,4,0,14,3214,0,1,601.6999999992549,241,H
2023-04-27T23:52:45Z,yk3unkzo,serial-reaction-time,1,R,4,1,15,3214,0,4,321.2999999988824,414,T
2023-04-27T23:52:45Z,yk3unkzo,serial-reaction-time,1,P,4,1,16,3214,0,4,241.90000000037253,144,H
2023-04-27T23:52:46Z,yk3unkzo,serial-reaction-time,1,R,4,1,17,3214,0,4,312.5,444,R
2023-04-27T23:52:46Z,yk3unkzo,serial-reaction-time,1,P,4,1,18,3214,0,3,384.7000000011176,443,H
2023-04-27T23:52:46Z,yk3unkzo,serial-reaction-time,1,R,4,1,19,3214,0,3,242.2999999988824,433,H
2023-04-27T23:52:47Z,yk3unkzo,serial-reaction-time,1,P,4,1,20,3214,0,2,458.9000000003726,332,H
2023-04-27T23:52:48Z,yk3unkzo,serial-reaction-time,1,R,4,1,21,3214,0,1,414.5,321,L
2023-04-27T23:52:48Z,yk3unkzo,serial-reaction-time,1,P,4,1,22,3214,0,1,279.30000000074506,211,H
2023-04-27T23:52:48Z,yk3unkzo,serial-reaction-time,1,R,4,1,23,3214,0,2,384.3999999985099,112,L
2023-04-27T23:52:49Z,yk3unkzo,serial-reaction-time,1,P,4,1,24,3214,0,4,365.4000000003726,124,H
2023-04-27T23:52:49Z,yk3unkzo,serial-reaction-time,1,R,4,1,25,3214,0,4,264.80000000074506,244,L
2023-04-27T23:52:50Z,yk3unkzo,serial-reaction-time,1,P,4,1,26,3214,0,3,380.9000000003726,443,H
2023-04-27T23:52:50Z,yk3unkzo,serial-reaction-time,1,R,4,1,27,3214,0,1,398.80000000074506,431,L
2023-04-27T23:52:51Z,yk3unkzo,serial-reaction-time,1,P,4,1,28,3214,0,2,389.1000000014901,312,H
2023-04-27T23:52:51Z,yk3unkzo,serial-reaction-time,1,R,4,1,29,3214,0,1,405.2000000011176,121,T
2023-04-27T23:52:52Z,yk3unkzo,serial-reaction-time,1,P,4,1,30,3214,0,1,328.09999999962747,211,H
2023-04-27T23:52:53Z,yk3unkzo,serial-reaction-time,1,R,4,1,31,3214,0,4,462.9000000003726,114,H
2023-04-27T23:52:53Z,yk3unkzo,serial-reaction-time,1,P,4,1,32,3214,0,4,278.90000000037253,144,H
2023-04-27T23:52:53Z,yk3unkzo,serial-reaction-time,1,R,4,1,33,3214,0,4,298.2000000011176,444,R
2023-04-27T23:52:54Z,yk3unkzo,serial-reaction-time,1,P,4,1,34,3214,0,3,398.8999999985099,443,H
2023-04-27T23:52:54Z,yk3unkzo,serial-reaction-time,1,R,4,1,35,3214,0,2,447,432,L
2023-04-27T23:52:55Z,yk3unkzo,serial-reaction-time,1,P,4,1,36,3214,0,2,257.40000000037253,322,H
2023-04-27T23:52:55Z,yk3unkzo,serial-reaction-time,1,R,4,1,37,3214,0,1,333,221,H
2023-04-27T23:52:56Z,yk3unkzo,serial-reaction-time,1,P,4,1,38,3214,0,1,289.59999999962747,211,H
2023-04-27T23:52:56Z,yk3unkzo,serial-reaction-time,1,R,4,1,39,3214,0,1,295.69999999925494,111,R
2023-04-27T23:52:57Z,yk3unkzo,serial-reaction-time,1,P,4,1,40,3214,0,4,353.90000000037253,114,H
2023-04-27T23:52:57Z,yk3unkzo,serial-reaction-time,1,R,4,1,41,3214,0,1,326.09999999962747,141,T
2023-04-27T23:52:58Z,yk3unkzo,serial-reaction-time,1,P,4,1,42,3214,0,3,492.5,413,H
2023-04-27T23:52:58Z,yk3unkzo,serial-reaction-time,1,R,4,1,43,3214,0,1,382.2000000011176,131,T
2023-04-27T23:52:59Z,yk3unkzo,serial-reaction-time,1,P,4,1,44,3214,0,2,422.5999999996274,312,H
2023-04-27T23:52:59Z,yk3unkzo,serial-reaction-time,1,R,4,1,45,3214,0,2,309.80000000074506,122,L
2023-04-27T23:53:00Z,yk3unkzo,serial-reaction-time,1,P,4,1,46,3214,0,1,338.90000000037253,221,H
2023-04-27T23:53:00Z,yk3unkzo,serial-reaction-time,1,R,4,1,47,3214,0,1,240.90000000037253,211,H
2023-04-27T23:53:01Z,yk3unkzo,serial-reaction-time,1,P,4,1,48,3214,0,4,410.3999999985099,114,H
2023-04-27T23:53:01Z,yk3unkzo,serial-reaction-time,1,R,4,1,49,3214,0,2,538.3000000007451,142,L
2023-04-27T23:53:02Z,yk3unkzo,serial-reaction-time,1,P,4,1,50,3214,0,3,474.7999999988824,423,H
2023-04-27T23:53:02Z,yk3unkzo,serial-reaction-time,1,R,4,1,51,3214,0,3,319.40000000037253,233,L
2023-04-27T23:53:03Z,yk3unkzo,serial-reaction-time,1,P,4,1,52,3214,0,2,332,332,H
2023-04-27T23:53:03Z,yk3unkzo,serial-reaction-time,1,R,4,1,53,3214,0,2,266.6000000014901,322,H
2023-04-27T23:53:04Z,yk3unkzo,serial-reaction-time,1,P,4,1,54,3214,0,1,338.09999999962747,221,H
2023-04-27T23:53:04Z,yk3unkzo,serial-reaction-time,1,R,4,1,55,3214,0,3,526.7999999988824,213,L
2023-04-27T23:53:05Z,yk3unkzo,serial-reaction-time,1,P,4,1,56,3214,0,4,308.90000000037253,134,H
2023-04-27T23:53:05Z,yk3unkzo,serial-reaction-time,1,R,4,1,57,3214,0,3,448,343,T
2023-04-27T23:53:06Z,yk3unkzo,serial-reaction-time,1,P,4,1,58,3214,0,3,323.3999999985099,433,H
2023-04-27T23:53:06Z,yk3unkzo,serial-reaction-time,NA,R,4,1,59,3214,0,2,345.5,332,H
2023-04-27T23:53:07Z,yk3unkzo,serial-reaction-time,1,R,4,0,59,3214,0,2,576.6000000014901,332,H
2023-04-27T23:53:07Z,yk3unkzo,serial-reaction-time,1,P,4,1,60,3214,0,2,363.5,322,H
2023-04-27T23:53:08Z,yk3unkzo,serial-reaction-time,1,R,4,1,61,3214,0,4,395.0999999996274,224,L
2023-04-27T23:53:08Z,yk3unkzo,serial-reaction-time,1,P,4,1,62,3214,0,1,605.5,241,H
2023-04-27T23:53:09Z,yk3unkzo,serial-reaction-time,1,R,4,1,63,3214,0,4,428.30000000074506,414,T
2023-04-27T23:53:09Z,yk3unkzo,serial-reaction-time,1,P,4,1,64,3214,0,4,303.1000000014901,144,H
2023-04-27T23:53:10Z,yk3unkzo,serial-reaction-time,1,R,4,1,65,3214,0,2,383.9000000003726,442,L
2023-04-27T23:53:10Z,yk3unkzo,serial-reaction-time,1,P,4,1,66,3214,0,3,473.69999999925494,423,H
2023-04-27T23:53:11Z,yk3unkzo,serial-reaction-time,1,R,4,1,67,3214,0,4,475.5,234,L
2023-04-27T23:53:12Z,yk3unkzo,serial-reaction-time,NA,P,4,1,68,3214,0,2,433.7999999988824,342,H
2023-04-27T23:53:12Z,yk3unkzo,serial-reaction-time,1,P,4,0,68,3214,0,2,675.8999999985099,342,H
2023-04-27T23:53:12Z,yk3unkzo,serial-reaction-time,1,R,4,1,69,3214,0,1,461.4000000003726,421,L
2023-04-27T23:53:13Z,yk3unkzo,serial-reaction-time,1,P,4,1,70,3214,0,1,299.40000000037253,211,H
2023-04-27T23:53:13Z,yk3unkzo,serial-reaction-time,NA,R,4,1,71,3214,0,4,387.0999999996274,114,H
2023-04-27T23:53:14Z,yk3unkzo,serial-reaction-time,1,R,4,0,71,3214,0,4,672.9000000003725,114,H
2023-04-27T23:53:14Z,yk3unkzo,serial-reaction-time,1,P,4,1,72,3214,0,4,347.59999999962747,144,H
2023-04-27T23:53:15Z,yk3unkzo,serial-reaction-time,1,R,4,1,73,3214,0,1,441.0999999996274,441,L
2023-04-27T23:53:15Z,yk3unkzo,serial-reaction-time,1,P,4,1,74,3214,0,3,417.4000000003726,413,H
2023-04-27T23:53:16Z,yk3unkzo,serial-reaction-time,1,R,4,1,75,3214,0,4,354.90000000037253,134,H
2023-04-27T23:53:16Z,yk3unkzo,serial-reaction-time,1,P,4,1,76,3214,0,2,389.4000000003726,342,H
2023-04-27T23:53:17Z,yk3unkzo,serial-reaction-time,1,R,4,1,77,3214,0,2,366.69999999925494,422,L
2023-04-27T23:53:17Z,yk3unkzo,serial-reaction-time,1,P,4,1,78,3214,0,1,429.4000000003726,221,H
2023-04-27T23:53:18Z,yk3unkzo,serial-reaction-time,1,R,4,1,79,3214,0,3,370,213,L
2023-04-27T23:53:19Z,yk3unkzo,serial-reaction-time,1,P,4,1,80,3214,0,4,495.4000000003726,134,H
2023-04-27T23:53:24Z,yk3unkzo,html-keyboard-response,NA,NA,NA,NA,NA,NA,NA,NA,NA,NA,NA
2023-04-27T23:53:24Z,yk3unkzo,html-keyboard-response,NA,NA,NA,NA,NA,NA,NA,NA,NA,NA,NA
2023-04-27T23:53:26Z,yk3unkzo,serial-reaction-time,1,R,5,1,1,3214,0,1,403.30000000074506,1,X
2023-04-27T23:53:26Z,yk3unkzo,serial-reaction-time,1,P,5,1,2,3214,0,3,348.2999999988824,13,X
2023-04-27T23:53:26Z,yk3unkzo,serial-reaction-time,1,R,5,1,3,3214,0,4,322.69999999925494,134,H
2023-04-27T23:53:27Z,yk3unkzo,serial-reaction-time,1,P,5,1,4,3214,0,2,349.80000000074506,342,H
2023-04-27T23:53:27Z,yk3unkzo,serial-reaction-time,1,R,5,1,5,3214,0,3,414.2999999988824,423,H
2023-04-27T23:53:28Z,yk3unkzo,serial-reaction-time,1,P,5,1,6,3214,0,1,328.19999999925494,231,H
2023-04-27T23:53:28Z,yk3unkzo,serial-reaction-time,1,R,5,1,7,3214,0,1,333.30000000074506,311,L
2023-04-27T23:53:29Z,yk3unkzo,serial-reaction-time,1,P,5,1,8,3214,0,4,372.8999999985099,114,H
2023-04-27T23:53:29Z,yk3unkzo,serial-reaction-time,1,R,5,1,9,3214,0,1,353.90000000037253,141,T
2023-04-27T23:53:30Z,yk3unkzo,serial-reaction-time,1,P,5,1,10,3214,0,3,361.9000000003726,413,H
2023-04-27T23:53:30Z,yk3unkzo,serial-reaction-time,1,R,5,1,11,3214,0,4,369.80000000074506,134,H
2023-04-27T23:53:31Z,yk3unkzo,serial-reaction-time,1,P,5,1,12,3214,0,2,450.5,342,H
2023-04-27T23:53:31Z,yk3unkzo,serial-reaction-time,1,R,5,1,13,3214,0,2,319.30000000074506,422,L
2023-04-27T23:53:32Z,yk3unkzo,serial-reaction-time,1,P,5,1,14,3214,0,1,345.5,221,H
2023-04-27T23:53:32Z,yk3unkzo,serial-reaction-time,1,R,5,1,15,3214,0,3,352.09999999962747,213,L
2023-04-27T23:53:33Z,yk3unkzo,serial-reaction-time,1,P,5,1,16,3214,0,4,282.40000000037253,134,H
2023-04-27T23:53:33Z,yk3unkzo,serial-reaction-time,1,R,5,1,17,3214,0,2,325.30000000074506,342,H
2023-04-27T23:53:34Z,yk3unkzo,serial-reaction-time,1,P,5,1,18,3214,0,3,357.90000000037253,423,H
2023-04-27T23:53:34Z,yk3unkzo,serial-reaction-time,1,R,5,1,19,3214,0,1,337.09999999962747,231,H
2023-04-27T23:53:35Z,yk3unkzo,serial-reaction-time,1,P,5,1,20,3214,0,2,469.5999999996274,312,H
2023-04-27T23:53:35Z,yk3unkzo,serial-reaction-time,1,R,5,1,21,3214,0,4,328.2999999988824,124,H
2023-04-27T23:53:36Z,yk3unkzo,serial-reaction-time,NA,P,5,1,22,3214,0,1,302.7000000011176,241,H
2023-04-27T23:53:36Z,yk3unkzo,serial-reaction-time,1,P,5,0,22,3214,0,1,634.8000000007451,241,H
2023-04-27T23:53:37Z,yk3unkzo,serial-reaction-time,1,R,5,1,23,3214,0,4,384.4000000003726,414,T
2023-04-27T23:53:37Z,yk3unkzo,serial-reaction-time,1,P,5,1,24,3214,0,4,365.0999999996274,144,H
2023-04-27T23:53:38Z,yk3unkzo,serial-reaction-time,1,R,5,1,25,3214,0,1,330.3999999985099,441,L
2023-04-27T23:53:38Z,yk3unkzo,serial-reaction-time,1,P,5,1,26,3214,0,3,347.5,413,H
2023-04-27T23:53:38Z,yk3unkzo,serial-reaction-time,NA,R,5,1,27,3214,0,1,353.40000000037253,131,T
2023-04-27T23:53:39Z,yk3unkzo,serial-reaction-time,1,R,5,0,27,3214,0,1,613.4000000003725,131,T
2023-04-27T23:53:39Z,yk3unkzo,serial-reaction-time,1,P,5,1,28,3214,0,2,406.5,312,H
2023-04-27T23:53:40Z,yk3unkzo,serial-reaction-time,1,R,5,1,29,3214,0,3,525.9000000003725,123,L
2023-04-27T23:53:40Z,yk3unkzo,serial-reaction-time,1,P,5,1,30,3214,0,1,391.80000000074506,231,H
2023-04-27T23:53:41Z,yk3unkzo,serial-reaction-time,1,R,5,1,31,3214,0,1,322.19999999925494,311,L
2023-04-27T23:53:41Z,yk3unkzo,serial-reaction-time,1,P,5,1,32,3214,0,4,383.80000000074506,114,H
2023-04-27T23:53:42Z,yk3unkzo,serial-reaction-time,1,R,5,1,33,3214,0,4,334.59999999962747,144,H
2023-04-27T23:53:42Z,yk3unkzo,serial-reaction-time,1,P,5,1,34,3214,0,3,395.0999999996274,443,H
2023-04-27T23:53:43Z,yk3unkzo,serial-reaction-time,1,R,5,1,35,3214,0,3,341.19999999925494,433,H
2023-04-27T23:53:43Z,yk3unkzo,serial-reaction-time,1,P,5,1,36,3214,0,2,365.30000000074506,332,H
2023-04-27T23:53:44Z,yk3unkzo,serial-reaction-time,1,R,5,1,37,3214,0,1,376,321,L
2023-04-27T23:53:44Z,yk3unkzo,serial-reaction-time,1,P,5,1,38,3214,0,1,328.2999999988824,211,H
2023-04-27T23:53:45Z,yk3unkzo,serial-reaction-time,1,R,5,1,39,3214,0,3,374.80000000074506,113,L
2023-04-27T23:53:45Z,yk3unkzo,serial-reaction-time,1,P,5,1,40,3214,0,4,369.5,134,H
2023-04-27T23:53:46Z,yk3unkzo,serial-reaction-time,1,R,5,1,41,3214,0,1,331.80000000074506,341,L
2023-04-27T23:53:46Z,yk3unkzo,serial-reaction-time,1,P,5,1,42,3214,0,3,373,413,H
2023-04-27T23:53:47Z,yk3unkzo,serial-reaction-time,1,R,5,1,43,3214,0,2,383.4000000003726,132,L
2023-04-27T23:53:47Z,yk3unkzo,serial-reaction-time,1,P,5,1,44,3214,0,2,302.2999999988824,322,H
2023-04-27T23:53:48Z,yk3unkzo,serial-reaction-time,1,R,5,1,45,3214,0,3,416.7000000011176,223,L
2023-04-27T23:53:48Z,yk3unkzo,serial-reaction-time,1,P,5,1,46,3214,0,1,338.80000000074506,231,H
2023-04-27T23:53:49Z,yk3unkzo,serial-reaction-time,1,R,5,1,47,3214,0,3,339.69999999925494,313,T
2023-04-27T23:53:49Z,yk3unkzo,serial-reaction-time,1,P,5,1,48,3214,0,4,392.30000000074506,134,H
2023-04-27T23:53:50Z,yk3unkzo,serial-reaction-time,1,R,5,1,49,3214,0,2,449.2999999988824,342,H
2023-04-27T23:53:50Z,yk3unkzo,serial-reaction-time,1,P,5,1,50,3214,0,3,330.2999999988824,423,H
2023-04-27T23:53:51Z,yk3unkzo,serial-reaction-time,1,R,5,1,51,3214,0,1,353.09999999962747,231,H
2023-04-27T23:53:51Z,yk3unkzo,serial-reaction-time,NA,P,5,1,52,3214,0,2,405.2999999988824,312,H
2023-04-27T23:53:52Z,yk3unkzo,serial-reaction-time,1,P,5,0,52,3214,0,2,698.4000000003725,312,H
2023-04-27T23:53:52Z,yk3unkzo,serial-reaction-time,1,R,5,1,53,3214,0,3,318.7999999988824,123,L
2023-04-27T23:53:53Z,yk3unkzo,serial-reaction-time,NA,P,5,1,54,3214,0,1,331.69999999925494,231,H
2023-04-27T23:53:53Z,yk3unkzo,serial-reaction-time,1,P,5,0,54,3214,0,1,734.6999999992549,231,H
2023-04-27T23:53:54Z,yk3unkzo,serial-reaction-time,1,R,5,1,55,3214,0,3,442.4000000003726,313,T
2023-04-27T23:53:54Z,yk3unkzo,serial-reaction-time,NA,P,5,1,56,3214,0,4,480.8999999985099,134,H
2023-04-27T23:53:55Z,yk3unkzo,serial-reaction-time,1,P,5,0,56,3214,0,4,810.2999999988824,134,H
2023-04-27T23:53:55Z,yk3unkzo,serial-reaction-time,1,R,5,1,57,3214,0,2,464.7000000011176,342,H
2023-04-27T23:53:56Z,yk3unkzo,serial-reaction-time,1,P,5,1,58,3214,0,3,497.5999999996274,423,H
2023-04-27T23:53:56Z,yk3unkzo,serial-reaction-time,NA,R,5,1,59,3214,0,4,358,234,L
2023-04-27T23:53:57Z,yk3unkzo,serial-reaction-time,1,R,5,0,59,3214,0,4,721.3000000007451,234,L
2023-04-27T23:53:57Z,yk3unkzo,serial-reaction-time,1,P,5,1,60,3214,0,2,681.5999999996275,342,H
2023-04-27T23:53:58Z,yk3unkzo,serial-reaction-time,1,R,5,1,61,3214,0,2,323.5,422,L
2023-04-27T23:53:59Z,yk3unkzo,serial-reaction-time,1,P,5,1,62,3214,0,1,445.2000000011176,221,H
2023-04-27T23:53:59Z,yk3unkzo,serial-reaction-time,1,R,5,1,63,3214,0,4,478,214,L
2023-04-27T23:54:00Z,yk3unkzo,serial-reaction-time,1,P,5,1,64,3214,0,4,330.5,144,H
2023-04-27T23:54:00Z,yk3unkzo,serial-reaction-time,1,R,5,1,65,3214,0,4,328.8999999985099,444,R
2023-04-27T23:54:01Z,yk3unkzo,serial-reaction-time,1,P,5,1,66,3214,0,3,391.7999999988824,443,H
2023-04-27T23:54:01Z,yk3unkzo,serial-reaction-time,1,R,5,1,67,3214,0,3,323.69999999925494,433,H
2023-04-27T23:54:01Z,yk3unkzo,serial-reaction-time,1,P,5,1,68,3214,0,2,333.30000000074506,332,H
2023-04-27T23:54:02Z,yk3unkzo,serial-reaction-time,1,R,5,1,69,3214,0,1,444.2000000011176,321,L
2023-04-27T23:54:02Z,yk3unkzo,serial-reaction-time,1,P,5,1,70,3214,0,1,285.8999999985099,211,H
2023-04-27T23:54:03Z,yk3unkzo,serial-reaction-time,1,R,5,1,71,3214,0,2,615.6000000014901,112,L
2023-04-27T23:54:04Z,yk3unkzo,serial-reaction-time,1,P,5,1,72,3214,0,4,462.7000000011176,124,H
2023-04-27T23:54:05Z,yk3unkzo,serial-reaction-time,1,R,5,1,73,3214,0,1,599.5,241,H
2023-04-27T23:54:05Z,yk3unkzo,serial-reaction-time,1,P,5,1,74,3214,0,3,467.7000000011176,413,H
2023-04-27T23:54:06Z,yk3unkzo,serial-reaction-time,1,R,5,1,75,3214,0,2,502,132,L
2023-04-27T23:54:06Z,yk3unkzo,serial-reaction-time,1,P,5,1,76,3214,0,2,420.19999999925494,322,H
2023-04-27T23:54:07Z,yk3unkzo,serial-reaction-time,1,R,5,1,77,3214,0,4,472,224,L
2023-04-27T23:54:08Z,yk3unkzo,serial-reaction-time,1,P,5,1,78,3214,0,1,427.0999999996274,241,H
2023-04-27T23:54:08Z,yk3unkzo,serial-reaction-time,1,R,5,1,79,3214,0,1,230.7999999988824,411,L
2023-04-27T23:54:08Z,yk3unkzo,serial-reaction-time,1,P,5,1,80,3214,0,4,399.19999999925494,114,H
2023-04-27T23:54:13Z,yk3unkzo,html-keyboard-response,NA,NA,NA,NA,NA,NA,NA,NA,NA,NA,NA
2023-04-27T23:54:16Z,yk3unkzo,html-keyboard-response,NA,NA,NA,NA,NA,NA,NA,NA,NA,NA,NA
2023-04-27T23:54:17Z,yk3unkzo,fullscreen,NA,NA,NA,NA,NA,NA,NA,NA,NA,NA,NA
2023-04-30T19:03:06Z,ln7kg8ue,fullscreen,NA,NA,NA,NA,NA,NA,NA,NA,NA,NA,NA
2023-04-30T19:03:07Z,ln7kg8ue,html-keyboard-response,NA,NA,NA,NA,NA,NA,NA,NA,NA,NA,NA
2023-04-30T19:03:09Z,ln7kg8ue,serial-reaction-time,1,R,1,1,1,3214,0,3,450.79999999701977,3,X
2023-04-30T19:03:09Z,ln7kg8ue,serial-reaction-time,1,P,1,1,2,3214,0,3,261.59999999403954,33,X
2023-04-30T19:03:10Z,ln7kg8ue,serial-reaction-time,1,R,1,1,3,3214,0,2,363.6000000014901,332,H
2023-04-30T19:03:10Z,ln7kg8ue,serial-reaction-time,1,P,1,1,4,3214,0,2,285.3999999985099,322,H
2023-04-30T19:03:10Z,ln7kg8ue,serial-reaction-time,1,R,1,1,5,3214,0,4,302.69999999552965,224,L
2023-04-30T19:03:11Z,ln7kg8ue,serial-reaction-time,1,P,1,1,6,3214,0,1,394.1000000014901,241,H
2023-04-30T19:03:11Z,ln7kg8ue,serial-reaction-time,1,R,1,1,7,3214,0,1,221.5,411,L
2023-04-30T19:03:12Z,ln7kg8ue,serial-reaction-time,1,P,1,1,8,3214,0,4,383,114,H
2023-04-30T19:03:12Z,ln7kg8ue,serial-reaction-time,1,R,1,1,9,3214,0,3,348.6000000014901,143,L
2023-04-30T19:03:13Z,ln7kg8ue,serial-reaction-time,1,P,1,1,10,3214,0,3,266.8999999985099,433,H
2023-04-30T19:03:13Z,ln7kg8ue,serial-reaction-time,1,R,1,1,11,3214,0,1,417.8999999985099,331,L
2023-04-30T19:03:14Z,ln7kg8ue,serial-reaction-time,NA,P,1,1,12,3214,0,2,358,312,H
2023-04-30T19:03:14Z,ln7kg8ue,serial-reaction-time,1,P,1,0,12,3214,0,2,444.6000000014901,312,H
2023-04-30T19:03:14Z,ln7kg8ue,serial-reaction-time,1,R,1,1,13,3214,0,4,348,124,H
2023-04-30T19:03:15Z,ln7kg8ue,serial-reaction-time,1,P,1,1,14,3214,0,1,337.29999999701977,241,H
2023-04-30T19:03:15Z,ln7kg8ue,serial-reaction-time,1,R,1,1,15,3214,0,2,457.6000000014901,412,L
2023-04-30T19:03:16Z,ln7kg8ue,serial-reaction-time,1,P,1,1,16,3214,0,4,382.6000000014901,124,H
2023-04-30T19:03:17Z,ln7kg8ue,serial-reaction-time,1,R,1,1,17,3214,0,1,594.3999999985099,241,H
2023-04-30T19:03:17Z,ln7kg8ue,serial-reaction-time,1,P,1,1,18,3214,0,3,332.8999999985099,413,H
2023-04-30T19:03:17Z,ln7kg8ue,serial-reaction-time,1,R,1,1,19,3214,0,3,209.19999999552965,133,L
2023-04-30T19:03:18Z,ln7kg8ue,serial-reaction-time,1,P,1,1,20,3214,0,2,407.80000000447035,332,H
2023-04-30T19:03:18Z,ln7kg8ue,serial-reaction-time,1,R,1,1,21,3214,0,4,358.5,324,L
2023-04-30T19:03:19Z,ln7kg8ue,serial-reaction-time,1,P,1,1,22,3214,0,1,394.6000000014901,241,H
2023-04-30T19:03:19Z,ln7kg8ue,serial-reaction-time,1,R,1,1,23,3214,0,1,285.79999999701977,411,L
2023-04-30T19:03:20Z,ln7kg8ue,serial-reaction-time,1,P,1,1,24,3214,0,4,390,114,H
2023-04-30T19:03:20Z,ln7kg8ue,serial-reaction-time,1,R,1,1,25,3214,0,2,419.29999999701977,142,L
2023-04-30T19:03:21Z,ln7kg8ue,serial-reaction-time,1,P,1,1,26,3214,0,3,283.1000000014901,423,H
2023-04-30T19:03:21Z,ln7kg8ue,serial-reaction-time,1,R,1,1,27,3214,0,1,339.6000000014901,231,H
2023-04-30T19:03:22Z,ln7kg8ue,serial-reaction-time,NA,P,1,1,28,3214,0,2,274.19999999552965,312,H
2023-04-30T19:03:22Z,ln7kg8ue,serial-reaction-time,1,P,1,0,28,3214,0,2,506.2999999895692,312,H
2023-04-30T19:03:22Z,ln7kg8ue,serial-reaction-time,1,R,1,1,29,3214,0,2,302.80000000447035,122,L
2023-04-30T19:03:23Z,ln7kg8ue,serial-reaction-time,1,P,1,1,30,3214,0,1,428.5,221,H
2023-04-30T19:03:23Z,ln7kg8ue,serial-reaction-time,1,R,1,1,31,3214,0,4,344.3999999985099,214,L
2023-04-30T19:03:24Z,ln7kg8ue,serial-reaction-time,1,P,1,1,32,3214,0,4,370.20000000298023,144,H
2023-04-30T19:03:24Z,ln7kg8ue,serial-reaction-time,1,R,1,1,33,3214,0,2,320.8999999985099,442,L
2023-04-30T19:03:25Z,ln7kg8ue,serial-reaction-time,1,P,1,1,34,3214,0,3,383.09999999403954,423,H
2023-04-30T19:03:26Z,ln7kg8ue,serial-reaction-time,1,R,1,1,35,3214,0,1,481.80000000447035,231,H
2023-04-30T19:03:26Z,ln7kg8ue,serial-reaction-time,1,P,1,1,36,3214,0,2,398.90000000596046,312,H
2023-04-30T19:03:26Z,ln7kg8ue,serial-reaction-time,1,R,1,1,37,3214,0,2,263.1000000014901,122,L
2023-04-30T19:03:27Z,ln7kg8ue,serial-reaction-time,1,P,1,1,38,3214,0,1,387.69999999552965,221,H
2023-04-30T19:03:28Z,ln7kg8ue,serial-reaction-time,1,R,1,1,39,3214,0,4,398.6000000014901,214,L
2023-04-30T19:03:28Z,ln7kg8ue,serial-reaction-time,1,P,1,1,40,3214,0,4,366,144,H
2023-04-30T19:03:28Z,ln7kg8ue,serial-reaction-time,1,R,1,1,41,3214,0,1,337.59999999403954,441,L
2023-04-30T19:03:29Z,ln7kg8ue,serial-reaction-time,1,P,1,1,42,3214,0,3,322.09999999403954,413,H
2023-04-30T19:03:29Z,ln7kg8ue,serial-reaction-time,NA,R,1,1,43,3214,0,1,302.6000000014901,131,T
2023-04-30T19:03:30Z,ln7kg8ue,serial-reaction-time,1,R,1,0,43,3214,0,1,619.6000000014901,131,T
2023-04-30T19:03:30Z,ln7kg8ue,serial-reaction-time,1,P,1,1,44,3214,0,2,430.29999999701977,312,H
2023-04-30T19:03:31Z,ln7kg8ue,serial-reaction-time,1,R,1,1,45,3214,0,2,239.39999999850988,122,L
2023-04-30T19:03:31Z,ln7kg8ue,serial-reaction-time,1,P,1,1,46,3214,0,1,441.29999999701977,221,H
2023-04-30T19:03:32Z,ln7kg8ue,serial-reaction-time,1,R,1,1,47,3214,0,2,323.1000000014901,212,T
2023-04-30T19:03:32Z,ln7kg8ue,serial-reaction-time,1,P,1,1,48,3214,0,4,380,124,H
2023-04-30T19:03:33Z,ln7kg8ue,serial-reaction-time,1,R,1,1,49,3214,0,2,362.6000000014901,242,T
2023-04-30T19:03:33Z,ln7kg8ue,serial-reaction-time,1,P,1,1,50,3214,0,3,403.19999999552965,423,H
2023-04-30T19:03:34Z,ln7kg8ue,serial-reaction-time,1,R,1,1,51,3214,0,3,257.29999999701977,233,L
2023-04-30T19:03:34Z,ln7kg8ue,serial-reaction-time,1,P,1,1,52,3214,0,2,314.6000000014901,332,H
2023-04-30T19:03:34Z,ln7kg8ue,serial-reaction-time,1,R,1,1,53,3214,0,3,275.70000000298023,323,T
2023-04-30T19:03:35Z,ln7kg8ue,serial-reaction-time,1,P,1,1,54,3214,0,1,414.1000000014901,231,H
2023-04-30T19:03:36Z,ln7kg8ue,serial-reaction-time,1,R,1,1,55,3214,0,2,398.29999999701977,312,H
2023-04-30T19:03:36Z,ln7kg8ue,serial-reaction-time,1,P,1,1,56,3214,0,4,501.69999999552965,124,H
2023-04-30T19:03:37Z,ln7kg8ue,serial-reaction-time,1,R,1,1,57,3214,0,4,334.3999999985099,244,L
2023-04-30T19:03:37Z,ln7kg8ue,serial-reaction-time,1,P,1,1,58,3214,0,3,416.8999999985099,443,H
2023-04-30T19:03:38Z,ln7kg8ue,serial-reaction-time,1,R,1,1,59,3214,0,3,325.8999999985099,433,H
2023-04-30T19:03:38Z,ln7kg8ue,serial-reaction-time,1,P,1,1,60,3214,0,2,315.69999999552965,332,H
2023-04-30T19:03:38Z,ln7kg8ue,serial-reaction-time,1,R,1,1,61,3214,0,4,329.1000000014901,324,L
2023-04-30T19:03:39Z,ln7kg8ue,serial-reaction-time,NA,P,1,1,62,3214,0,1,333.20000000298023,241,H
2023-04-30T19:03:39Z,ln7kg8ue,serial-reaction-time,1,P,1,0,62,3214,0,1,658.6000000014901,241,H
2023-04-30T19:03:40Z,ln7kg8ue,serial-reaction-time,1,R,1,1,63,3214,0,3,381.6000000014901,413,H
2023-04-30T19:03:40Z,ln7kg8ue,serial-reaction-time,1,P,1,1,64,3214,0,4,390.30000000447035,134,H
2023-04-30T19:03:41Z,ln7kg8ue,serial-reaction-time,NA,R,1,1,65,3214,0,3,343.3999999985099,343,T
2023-04-30T19:03:41Z,ln7kg8ue,serial-reaction-time,1,R,1,0,65,3214,0,3,523.5,343,T
2023-04-30T19:03:41Z,ln7kg8ue,serial-reaction-time,1,P,1,1,66,3214,0,3,411.3999999985099,433,H
2023-04-30T19:03:42Z,ln7kg8ue,serial-reaction-time,1,R,1,1,67,3214,0,4,334.59999999403954,334,L
2023-04-30T19:03:42Z,ln7kg8ue,serial-reaction-time,1,P,1,1,68,3214,0,2,386.90000000596046,342,H
2023-04-30T19:03:43Z,ln7kg8ue,serial-reaction-time,1,R,1,1,69,3214,0,4,432.8999999985099,424,T
2023-04-30T19:03:44Z,ln7kg8ue,serial-reaction-time,1,P,1,1,70,3214,0,1,437.3999999985099,241,H
2023-04-30T19:03:44Z,ln7kg8ue,serial-reaction-time,NA,R,1,1,71,3214,0,4,334.29999999701977,414,T
2023-04-30T19:03:44Z,ln7kg8ue,serial-reaction-time,1,R,1,0,71,3214,0,4,601,414,T
2023-04-30T19:03:45Z,ln7kg8ue,serial-reaction-time,1,P,1,1,72,3214,0,4,346.59999999403954,144,H
2023-04-30T19:03:45Z,ln7kg8ue,serial-reaction-time,1,R,1,1,73,3214,0,2,383.6000000014901,442,L
2023-04-30T19:03:46Z,ln7kg8ue,serial-reaction-time,1,P,1,1,74,3214,0,3,506.29999999701977,423,H
2023-04-30T19:03:46Z,ln7kg8ue,serial-reaction-time,1,R,1,1,75,3214,0,4,250.5,234,L
2023-04-30T19:03:47Z,ln7kg8ue,serial-reaction-time,1,P,1,1,76,3214,0,2,588.2000000029802,342,H
2023-04-30T19:03:47Z,ln7kg8ue,serial-reaction-time,1,R,1,1,77,3214,0,2,333.20000000298023,422,L
2023-04-30T19:03:48Z,ln7kg8ue,serial-reaction-time,1,P,1,1,78,3214,0,1,424.3999999985099,221,H
2023-04-30T19:03:49Z,ln7kg8ue,serial-reaction-time,1,R,1,1,79,3214,0,4,341.70000000298023,214,L
2023-04-30T19:03:49Z,ln7kg8ue,serial-reaction-time,1,P,1,1,80,3214,0,4,413.8999999985099,144,H
2023-04-30T19:03:54Z,ln7kg8ue,html-keyboard-response,NA,NA,NA,NA,NA,NA,NA,NA,NA,NA,NA
2023-04-30T19:03:55Z,ln7kg8ue,html-keyboard-response,NA,NA,NA,NA,NA,NA,NA,NA,NA,NA,NA
2023-04-30T19:03:57Z,ln7kg8ue,serial-reaction-time,1,R,2,1,1,3214,0,3,1258.1999999955297,3,X
2023-04-30T19:03:57Z,ln7kg8ue,serial-reaction-time,1,P,2,1,2,3214,0,3,233,33,X
2023-04-30T19:03:58Z,ln7kg8ue,serial-reaction-time,1,R,2,1,3,3214,0,1,355.69999999552965,331,L
2023-04-30T19:03:58Z,ln7kg8ue,serial-reaction-time,1,P,2,1,4,3214,0,2,360.59999999403954,312,H
2023-04-30T19:03:59Z,ln7kg8ue,serial-reaction-time,1,R,2,1,5,3214,0,4,325.1000000014901,124,H
2023-04-30T19:03:59Z,ln7kg8ue,serial-reaction-time,1,P,2,1,6,3214,0,1,392.80000000447035,241,H
2023-04-30T19:04:00Z,ln7kg8ue,serial-reaction-time,NA,R,2,1,7,3214,0,2,372.09999999403954,412,L
2023-04-30T19:04:00Z,ln7kg8ue,serial-reaction-time,1,R,2,0,7,3214,0,2,490,412,L
2023-04-30T19:04:00Z,ln7kg8ue,serial-reaction-time,1,P,2,1,8,3214,0,4,316.79999999701977,124,H
2023-04-30T19:04:01Z,ln7kg8ue,serial-reaction-time,1,R,2,1,9,3214,0,2,389.1000000014901,242,T
2023-04-30T19:04:01Z,ln7kg8ue,serial-reaction-time,1,P,2,1,10,3214,0,3,341,423,H
2023-04-30T19:04:02Z,ln7kg8ue,serial-reaction-time,1,R,2,1,11,3214,0,4,309.8999999985099,234,L
2023-04-30T19:04:02Z,ln7kg8ue,serial-reaction-time,1,P,2,1,12,3214,0,2,335.30000000447035,342,H
2023-04-30T19:04:03Z,ln7kg8ue,serial-reaction-time,NA,R,2,1,13,3214,0,3,314.29999999701977,423,H
2023-04-30T19:04:03Z,ln7kg8ue,serial-reaction-time,1,R,2,0,13,3214,0,3,401.4999999925494,423,H
2023-04-30T19:04:03Z,ln7kg8ue,serial-reaction-time,1,P,2,1,14,3214,0,1,452.70000000298023,231,H
2023-04-30T19:04:04Z,ln7kg8ue,serial-reaction-time,1,R,2,1,15,3214,0,2,404.79999999701977,312,H
2023-04-30T19:04:04Z,ln7kg8ue,serial-reaction-time,1,P,2,1,16,3214,0,4,342.79999999701977,124,H
2023-04-30T19:04:05Z,ln7kg8ue,serial-reaction-time,1,R,2,1,17,3214,0,4,358.3999999985099,244,L
2023-04-30T19:04:05Z,ln7kg8ue,serial-reaction-time,1,P,2,1,18,3214,0,3,323.19999999552965,443,H
2023-04-30T19:04:06Z,ln7kg8ue,serial-reaction-time,1,R,2,1,19,3214,0,3,262.90000000596046,433,H
2023-04-30T19:04:06Z,ln7kg8ue,serial-reaction-time,1,P,2,1,20,3214,0,2,288.8999999985099,332,H
2023-04-30T19:04:07Z,ln7kg8ue,serial-reaction-time,1,R,2,1,21,3214,0,1,307.3999999985099,321,L
2023-04-30T19:04:07Z,ln7kg8ue,serial-reaction-time,1,P,2,1,22,3214,0,1,318.5,211,H
2023-04-30T19:04:07Z,ln7kg8ue,serial-reaction-time,1,R,2,1,23,3214,0,4,409.80000000447035,114,H
2023-04-30T19:04:08Z,ln7kg8ue,serial-reaction-time,1,P,2,1,24,3214,0,4,272.5,144,H
2023-04-30T19:04:08Z,ln7kg8ue,serial-reaction-time,1,R,2,1,25,3214,0,3,333.6000000014901,443,H
2023-04-30T19:04:09Z,ln7kg8ue,serial-reaction-time,1,P,2,1,26,3214,0,3,314.29999999701977,433,H
2023-04-30T19:04:09Z,ln7kg8ue,serial-reaction-time,1,R,2,1,27,3214,0,3,327.6000000014901,333,R
2023-04-30T19:04:10Z,ln7kg8ue,serial-reaction-time,1,P,2,1,28,3214,0,2,360.29999999701977,332,H
2023-04-30T19:04:10Z,ln7kg8ue,serial-reaction-time,1,R,2,1,29,3214,0,3,334.80000000447035,323,T
2023-04-30T19:04:11Z,ln7kg8ue,serial-reaction-time,NA,P,2,1,30,3214,0,1,272.90000000596046,231,H
2023-04-30T19:04:11Z,ln7kg8ue,serial-reaction-time,1,P,2,0,30,3214,0,1,541.1000000089407,231,H
2023-04-30T19:04:11Z,ln7kg8ue,serial-reaction-time,1,R,2,1,31,3214,0,3,345.90000000596046,313,T
2023-04-30T19:04:12Z,ln7kg8ue,serial-reaction-time,NA,P,2,1,32,3214,0,4,348.09999999403954,134,H
2023-04-30T19:04:12Z,ln7kg8ue,serial-reaction-time,1,P,2,0,32,3214,0,4,493.9999999925494,134,H
2023-04-30T19:04:12Z,ln7kg8ue,serial-reaction-time,1,R,2,1,33,3214,0,3,350.79999999701977,343,T
2023-04-30T19:04:13Z,ln7kg8ue,serial-reaction-time,1,P,2,1,34,3214,0,3,263.3999999985099,433,H
2023-04-30T19:04:13Z,ln7kg8ue,serial-reaction-time,1,R,2,1,35,3214,0,4,507.6000000014901,334,L
2023-04-30T19:04:14Z,ln7kg8ue,serial-reaction-time,1,P,2,1,36,3214,0,2,329.3999999985099,342,H
2023-04-30T19:04:15Z,ln7kg8ue,serial-reaction-time,1,R,2,1,37,3214,0,4,472.20000000298023,424,T
2023-04-30T19:04:15Z,ln7kg8ue,serial-reaction-time,1,P,2,1,38,3214,0,1,309.69999999552965,241,H
2023-04-30T19:04:15Z,ln7kg8ue,serial-reaction-time,1,R,2,1,39,3214,0,2,395.8999999985099,412,L
2023-04-30T19:04:16Z,ln7kg8ue,serial-reaction-time,1,P,2,1,40,3214,0,4,323.69999999552965,124,H
2023-04-30T19:04:16Z,ln7kg8ue,serial-reaction-time,1,R,2,1,41,3214,0,4,369.8999999985099,244,L
2023-04-30T19:04:17Z,ln7kg8ue,serial-reaction-time,1,P,2,1,42,3214,0,3,490.1000000014901,443,H
2023-04-30T19:04:18Z,ln7kg8ue,serial-reaction-time,1,R,2,1,43,3214,0,1,363,431,L
2023-04-30T19:04:18Z,ln7kg8ue,serial-reaction-time,1,P,2,1,44,3214,0,2,434.30000000447035,312,H
2023-04-30T19:04:19Z,ln7kg8ue,serial-reaction-time,1,R,2,1,45,3214,0,2,430.70000000298023,122,L
2023-04-30T19:04:19Z,ln7kg8ue,serial-reaction-time,NA,P,2,1,46,3214,0,1,415.1000000014901,221,H
2023-04-30T19:04:19Z,ln7kg8ue,serial-reaction-time,1,P,2,0,46,3214,0,1,625.2000000029802,221,H
2023-04-30T19:04:20Z,ln7kg8ue,serial-reaction-time,1,R,2,1,47,3214,0,4,457.70000000298023,214,L
2023-04-30T19:04:20Z,ln7kg8ue,serial-reaction-time,1,P,2,1,48,3214,0,4,307.30000000447035,144,H
2023-04-30T19:04:21Z,ln7kg8ue,serial-reaction-time,1,R,2,1,49,3214,0,1,335.8999999985099,441,L
2023-04-30T19:04:21Z,ln7kg8ue,serial-reaction-time,1,P,2,1,50,3214,0,3,371.79999999701977,413,H
2023-04-30T19:04:22Z,ln7kg8ue,serial-reaction-time,1,R,2,1,51,3214,0,4,337,134,H
2023-04-30T19:04:22Z,ln7kg8ue,serial-reaction-time,1,P,2,1,52,3214,0,2,380.70000000298023,342,H
2023-04-30T19:04:23Z,ln7kg8ue,serial-reaction-time,1,R,2,1,53,3214,0,4,338.8999999985099,424,T
2023-04-30T19:04:23Z,ln7kg8ue,serial-reaction-time,NA,P,2,1,54,3214,0,1,370,241,H
2023-04-30T19:04:24Z,ln7kg8ue,serial-reaction-time,1,P,2,0,54,3214,0,1,622,241,H
2023-04-30T19:04:24Z,ln7kg8ue,serial-reaction-time,1,R,2,1,55,3214,0,1,325.20000000298023,411,L
2023-04-30T19:04:25Z,ln7kg8ue,serial-reaction-time,NA,P,2,1,56,3214,0,4,389.8999999985099,114,H
2023-04-30T19:04:25Z,ln7kg8ue,serial-reaction-time,1,P,2,0,56,3214,0,4,751.2999999970198,114,H
2023-04-30T19:04:25Z,ln7kg8ue,serial-reaction-time,1,R,2,1,57,3214,0,3,427.70000000298023,143,L
2023-04-30T19:04:26Z,ln7kg8ue,serial-reaction-time,1,P,2,1,58,3214,0,3,299.40000000596046,433,H
2023-04-30T19:04:26Z,ln7kg8ue,serial-reaction-time,1,R,2,1,59,3214,0,4,312.3999999985099,334,L
2023-04-30T19:04:27Z,ln7kg8ue,serial-reaction-time,1,P,2,1,60,3214,0,2,396.79999999701977,342,H
2023-04-30T19:04:27Z,ln7kg8ue,serial-reaction-time,1,R,2,1,61,3214,0,4,356.3999999985099,424,T
2023-04-30T19:04:28Z,ln7kg8ue,serial-reaction-time,1,P,2,1,62,3214,0,1,445.3999999985099,241,H
2023-04-30T19:04:28Z,ln7kg8ue,serial-reaction-time,1,R,2,1,63,3214,0,3,336,413,H
2023-04-30T19:04:29Z,ln7kg8ue,serial-reaction-time,1,P,2,1,64,3214,0,4,312.79999999701977,134,H
2023-04-30T19:04:29Z,ln7kg8ue,serial-reaction-time,1,R,2,1,65,3214,0,2,358.1000000014901,342,H
2023-04-30T19:04:30Z,ln7kg8ue,serial-reaction-time,NA,P,2,1,66,3214,0,3,280,423,H
2023-04-30T19:04:30Z,ln7kg8ue,serial-reaction-time,1,P,2,0,66,3214,0,3,494.5,423,H
2023-04-30T19:04:30Z,ln7kg8ue,serial-reaction-time,1,R,2,1,67,3214,0,2,315.5,232,T
2023-04-30T19:04:31Z,ln7kg8ue,serial-reaction-time,1,P,2,1,68,3214,0,2,249.30000000447035,322,H
2023-04-30T19:04:31Z,ln7kg8ue,serial-reaction-time,1,R,2,1,69,3214,0,2,384.80000000447035,222,R
2023-04-30T19:04:32Z,ln7kg8ue,serial-reaction-time,1,P,2,1,70,3214,0,1,417.5,221,H
2023-04-30T19:04:32Z,ln7kg8ue,serial-reaction-time,1,R,2,1,71,3214,0,1,333.70000000298023,211,H
2023-04-30T19:04:33Z,ln7kg8ue,serial-reaction-time,1,P,2,1,72,3214,0,4,330.79999999701977,114,H
2023-04-30T19:04:33Z,ln7kg8ue,serial-reaction-time,1,R,2,1,73,3214,0,3,414.59999999403954,143,L
2023-04-30T19:04:34Z,ln7kg8ue,serial-reaction-time,1,P,2,1,74,3214,0,3,273.8999999985099,433,H
2023-04-30T19:04:34Z,ln7kg8ue,serial-reaction-time,1,R,2,1,75,3214,0,2,319.70000000298023,332,H
2023-04-30T19:04:35Z,ln7kg8ue,serial-reaction-time,1,P,2,1,76,3214,0,2,288.1000000014901,322,H
2023-04-30T19:04:35Z,ln7kg8ue,serial-reaction-time,1,R,2,1,77,3214,0,3,509,223,L
2023-04-30T19:04:36Z,ln7kg8ue,serial-reaction-time,1,P,2,1,78,3214,0,1,375.5,231,H
2023-04-30T19:04:36Z,ln7kg8ue,serial-reaction-time,1,R,2,1,79,3214,0,3,274.8999999985099,313,T
2023-04-30T19:04:37Z,ln7kg8ue,serial-reaction-time,1,P,2,1,80,3214,0,4,345,134,H
2023-04-30T19:04:42Z,ln7kg8ue,html-keyboard-response,NA,NA,NA,NA,NA,NA,NA,NA,NA,NA,NA
2023-04-30T19:04:42Z,ln7kg8ue,html-keyboard-response,NA,NA,NA,NA,NA,NA,NA,NA,NA,NA,NA
2023-04-30T19:04:43Z,ln7kg8ue,serial-reaction-time,1,R,3,1,1,3214,0,3,488.69999999552965,3,X
2023-04-30T19:04:44Z,ln7kg8ue,serial-reaction-time,1,P,3,1,2,3214,0,3,308.40000000596046,33,X
2023-04-30T19:04:44Z,ln7kg8ue,serial-reaction-time,NA,R,3,1,3,3214,0,1,366.70000000298023,331,L
2023-04-30T19:04:45Z,ln7kg8ue,serial-reaction-time,1,R,3,0,3,3214,0,1,783.1000000014901,331,L
2023-04-30T19:04:45Z,ln7kg8ue,serial-reaction-time,1,P,3,1,4,3214,0,2,366.70000000298023,312,H
2023-04-30T19:04:46Z,ln7kg8ue,serial-reaction-time,1,R,3,1,5,3214,0,3,323.80000000447035,123,L
2023-04-30T19:04:46Z,ln7kg8ue,serial-reaction-time,1,P,3,1,6,3214,0,1,554.1999999955297,231,H
2023-04-30T19:04:47Z,ln7kg8ue,serial-reaction-time,1,R,3,1,7,3214,0,3,355.30000000447035,313,T
2023-04-30T19:04:47Z,ln7kg8ue,serial-reaction-time,1,P,3,1,8,3214,0,4,408.30000000447035,134,H
2023-04-30T19:04:48Z,ln7kg8ue,serial-reaction-time,1,R,3,1,9,3214,0,2,393.5,342,H
2023-04-30T19:04:48Z,ln7kg8ue,serial-reaction-time,1,P,3,1,10,3214,0,3,355,423,H
2023-04-30T19:04:49Z,ln7kg8ue,serial-reaction-time,1,R,3,1,11,3214,0,4,306.90000000596046,234,L
2023-04-30T19:04:49Z,ln7kg8ue,serial-reaction-time,1,P,3,1,12,3214,0,2,355.79999999701977,342,H
2023-04-30T19:04:50Z,ln7kg8ue,serial-reaction-time,1,R,3,1,13,3214,0,2,282.69999999552965,422,L
2023-04-30T19:04:50Z,ln7kg8ue,serial-reaction-time,1,P,3,1,14,3214,0,1,417.6000000014901,221,H
2023-04-30T19:04:51Z,ln7kg8ue,serial-reaction-time,1,R,3,1,15,3214,0,1,367.79999999701977,211,H
2023-04-30T19:04:51Z,ln7kg8ue,serial-reaction-time,1,P,3,1,16,3214,0,4,323.8999999985099,114,H
2023-04-30T19:04:52Z,ln7kg8ue,serial-reaction-time,1,R,3,1,17,3214,0,1,430.8999999985099,141,T
2023-04-30T19:04:52Z,ln7kg8ue,serial-reaction-time,1,P,3,1,18,3214,0,3,377.20000000298023,413,H
2023-04-30T19:04:53Z,ln7kg8ue,serial-reaction-time,1,R,3,1,19,3214,0,1,370.6000000014901,131,T
2023-04-30T19:04:53Z,ln7kg8ue,serial-reaction-time,1,P,3,1,20,3214,0,2,450.8999999985099,312,H
2023-04-30T19:04:54Z,ln7kg8ue,serial-reaction-time,1,R,3,1,21,3214,0,1,471.29999999701977,121,T
2023-04-30T19:04:55Z,ln7kg8ue,serial-reaction-time,1,P,3,1,22,3214,0,1,362.79999999701977,211,H
2023-04-30T19:04:55Z,ln7kg8ue,serial-reaction-time,1,R,3,1,23,3214,0,2,391.80000000447035,112,L
2023-04-30T19:04:55Z,ln7kg8ue,serial-reaction-time,1,P,3,1,24,3214,0,4,331.30000000447035,124,H
2023-04-30T19:04:56Z,ln7kg8ue,serial-reaction-time,1,R,3,1,25,3214,0,1,374.20000000298023,241,H
2023-04-30T19:04:56Z,ln7kg8ue,serial-reaction-time,1,P,3,1,26,3214,0,3,331,413,H
2023-04-30T19:04:57Z,ln7kg8ue,serial-reaction-time,1,R,3,1,27,3214,0,1,378.1000000014901,131,T
2023-04-30T19:04:58Z,ln7kg8ue,serial-reaction-time,1,P,3,1,28,3214,0,2,446.8999999985099,312,H
2023-04-30T19:04:58Z,ln7kg8ue,serial-reaction-time,1,R,3,1,29,3214,0,2,343.19999999552965,122,L
2023-04-30T19:04:58Z,ln7kg8ue,serial-reaction-time,1,P,3,1,30,3214,0,1,374.70000000298023,221,H
2023-04-30T19:04:59Z,ln7kg8ue,serial-reaction-time,1,R,3,1,31,3214,0,1,496.8999999985099,211,H
2023-04-30T19:05:00Z,ln7kg8ue,serial-reaction-time,1,P,3,1,32,3214,0,4,381.5,114,H
2023-04-30T19:05:00Z,ln7kg8ue,serial-reaction-time,1,R,3,1,33,3214,0,2,261.6000000014901,142,L
2023-04-30T19:05:00Z,ln7kg8ue,serial-reaction-time,1,P,3,1,34,3214,0,3,324.20000000298023,423,H
2023-04-30T19:05:01Z,ln7kg8ue,serial-reaction-time,1,R,3,1,35,3214,0,2,275.30000000447035,232,T
2023-04-30T19:05:01Z,ln7kg8ue,serial-reaction-time,NA,P,3,1,36,3214,0,2,301,322,H
2023-04-30T19:05:02Z,ln7kg8ue,serial-reaction-time,1,P,3,0,36,3214,0,2,596.7000000029802,322,H
2023-04-30T19:05:02Z,ln7kg8ue,serial-reaction-time,NA,R,3,1,37,3214,0,2,357.1000000014901,222,R
2023-04-30T19:05:02Z,ln7kg8ue,serial-reaction-time,1,R,3,0,37,3214,0,2,686.6000000014901,222,R
2023-04-30T19:05:03Z,ln7kg8ue,serial-reaction-time,1,P,3,1,38,3214,0,1,356.8999999985099,221,H
2023-04-30T19:05:03Z,ln7kg8ue,serial-reaction-time,1,R,3,1,39,3214,0,4,374.1000000014901,214,L
2023-04-30T19:05:04Z,ln7kg8ue,serial-reaction-time,1,P,3,1,40,3214,0,4,349.6000000014901,144,H
2023-04-30T19:05:04Z,ln7kg8ue,serial-reaction-time,1,R,3,1,41,3214,0,4,367.70000000298023,444,R
2023-04-30T19:05:05Z,ln7kg8ue,serial-reaction-time,1,P,3,1,42,3214,0,3,396.70000000298023,443,H
2023-04-30T19:05:06Z,ln7kg8ue,serial-reaction-time,1,R,3,1,43,3214,0,1,590,431,L
2023-04-30T19:05:06Z,ln7kg8ue,serial-reaction-time,1,P,3,1,44,3214,0,2,368.30000000447035,312,H
2023-04-30T19:05:07Z,ln7kg8ue,serial-reaction-time,1,R,3,1,45,3214,0,1,453,121,T
2023-04-30T19:05:07Z,ln7kg8ue,serial-reaction-time,1,P,3,1,46,3214,0,1,410.09999999403954,211,H
2023-04-30T19:05:08Z,ln7kg8ue,serial-reaction-time,1,R,3,1,47,3214,0,3,303.70000000298023,113,L
2023-04-30T19:05:08Z,ln7kg8ue,serial-reaction-time,1,P,3,1,48,3214,0,4,353.09999999403954,134,H
2023-04-30T19:05:09Z,ln7kg8ue,serial-reaction-time,1,R,3,1,49,3214,0,2,453.1000000014901,342,H
2023-04-30T19:05:09Z,ln7kg8ue,serial-reaction-time,1,P,3,1,50,3214,0,3,327.5,423,H
2023-04-30T19:05:10Z,ln7kg8ue,serial-reaction-time,NA,R,3,1,51,3214,0,4,328,234,L
2023-04-30T19:05:10Z,ln7kg8ue,serial-reaction-time,1,R,3,0,51,3214,0,4,579.8000000044703,234,L
2023-04-30T19:05:10Z,ln7kg8ue,serial-reaction-time,NA,P,3,1,52,3214,0,2,285.6000000014901,342,H
2023-04-30T19:05:11Z,ln7kg8ue,serial-reaction-time,1,P,3,0,52,3214,0,2,637.6000000014901,342,H
2023-04-30T19:05:11Z,ln7kg8ue,serial-reaction-time,1,R,3,1,53,3214,0,4,438,424,T
2023-04-30T19:05:12Z,ln7kg8ue,serial-reaction-time,NA,P,3,1,54,3214,0,1,324.69999999552965,241,H
2023-04-30T19:05:12Z,ln7kg8ue,serial-reaction-time,1,P,3,0,54,3214,0,1,659.9999999925494,241,H
2023-04-30T19:05:12Z,ln7kg8ue,serial-reaction-time,1,R,3,1,55,3214,0,1,353.79999999701977,411,L
2023-04-30T19:05:13Z,ln7kg8ue,serial-reaction-time,1,P,3,1,56,3214,0,4,378.3999999985099,114,H
2023-04-30T19:05:13Z,ln7kg8ue,serial-reaction-time,1,R,3,1,57,3214,0,2,298.1000000014901,142,L
2023-04-30T19:05:14Z,ln7kg8ue,serial-reaction-time,1,P,3,1,58,3214,0,3,370.5,423,H
2023-04-30T19:05:14Z,ln7kg8ue,serial-reaction-time,NA,R,3,1,59,3214,0,1,315.8999999985099,231,H
2023-04-30T19:05:15Z,ln7kg8ue,serial-reaction-time,1,R,3,0,59,3214,0,1,679.6000000014901,231,H
2023-04-30T19:05:15Z,ln7kg8ue,serial-reaction-time,1,P,3,1,60,3214,0,2,464.8999999985099,312,H
2023-04-30T19:05:16Z,ln7kg8ue,serial-reaction-time,1,R,3,1,61,3214,0,2,319,122,L
2023-04-30T19:05:16Z,ln7kg8ue,serial-reaction-time,1,P,3,1,62,3214,0,1,397.09999999403954,221,H
2023-04-30T19:05:17Z,ln7kg8ue,serial-reaction-time,NA,R,3,1,63,3214,0,3,276.5,213,L
2023-04-30T19:05:17Z,ln7kg8ue,serial-reaction-time,1,R,3,0,63,3214,0,3,526.6999999955297,213,L
2023-04-30T19:05:18Z,ln7kg8ue,serial-reaction-time,1,P,3,1,64,3214,0,4,478.6000000014901,134,H
2023-04-30T19:05:18Z,ln7kg8ue,serial-reaction-time,1,R,3,1,65,3214,0,4,367,344,L
2023-04-30T19:05:18Z,ln7kg8ue,serial-reaction-time,NA,P,3,1,66,3214,0,3,331.20000000298023,443,H
2023-04-30T19:05:19Z,ln7kg8ue,serial-reaction-time,NA,P,3,0,66,3214,0,3,590.4000000059605,443,H
2023-04-30T19:05:19Z,ln7kg8ue,serial-reaction-time,1,P,3,0,66,3214,0,3,969.7000000029802,443,H
2023-04-30T19:05:20Z,ln7kg8ue,serial-reaction-time,1,R,3,1,67,3214,0,2,506.3999999985099,432,L
2023-04-30T19:05:20Z,ln7kg8ue,serial-reaction-time,1,P,3,1,68,3214,0,2,395.8999999985099,322,H
2023-04-30T19:05:21Z,ln7kg8ue,serial-reaction-time,1,R,3,1,69,3214,0,1,264,221,H
2023-04-30T19:05:21Z,ln7kg8ue,serial-reaction-time,1,P,3,1,70,3214,0,1,283.8999999985099,211,H
2023-04-30T19:05:22Z,ln7kg8ue,serial-reaction-time,1,R,3,1,71,3214,0,2,360.6000000014901,112,L
2023-04-30T19:05:22Z,ln7kg8ue,serial-reaction-time,1,P,3,1,72,3214,0,4,357.90000000596046,124,H
2023-04-30T19:05:23Z,ln7kg8ue,serial-reaction-time,1,R,3,1,73,3214,0,2,317.79999999701977,242,T
2023-04-30T19:05:23Z,ln7kg8ue,serial-reaction-time,NA,P,3,1,74,3214,0,3,301.09999999403954,423,H
2023-04-30T19:05:23Z,ln7kg8ue,serial-reaction-time,1,P,3,0,74,3214,0,3,581,423,H
2023-04-30T19:05:24Z,ln7kg8ue,serial-reaction-time,1,R,3,1,75,3214,0,2,257.59999999403954,232,T
2023-04-30T19:05:24Z,ln7kg8ue,serial-reaction-time,1,P,3,1,76,3214,0,2,409,322,H
2023-04-30T19:05:25Z,ln7kg8ue,serial-reaction-time,1,R,3,1,77,3214,0,4,463.8999999985099,224,L
2023-04-30T19:05:25Z,ln7kg8ue,serial-reaction-time,NA,P,3,1,78,3214,0,1,316,241,H
2023-04-30T19:05:25Z,ln7kg8ue,serial-reaction-time,1,P,3,0,78,3214,0,1,540.1000000014901,241,H
2023-04-30T19:05:26Z,ln7kg8ue,serial-reaction-time,1,R,3,1,79,3214,0,2,353.40000000596046,412,L
2023-04-30T19:05:26Z,ln7kg8ue,serial-reaction-time,NA,P,3,1,80,3214,0,4,216.89999999850988,124,H
2023-04-30T19:05:26Z,ln7kg8ue,serial-reaction-time,1,P,3,0,80,3214,0,4,382.19999999552965,124,H
2023-04-30T19:05:31Z,ln7kg8ue,html-keyboard-response,NA,NA,NA,NA,NA,NA,NA,NA,NA,NA,NA
2023-04-30T19:05:33Z,ln7kg8ue,html-keyboard-response,NA,NA,NA,NA,NA,NA,NA,NA,NA,NA,NA
2023-04-30T19:05:35Z,ln7kg8ue,serial-reaction-time,1,R,4,1,1,3214,0,2,479.29999999701977,2,X
2023-04-30T19:05:35Z,ln7kg8ue,serial-reaction-time,1,P,4,1,2,3214,0,3,350.1000000014901,23,X
2023-04-30T19:05:35Z,ln7kg8ue,serial-reaction-time,NA,R,4,1,3,3214,0,1,361.3999999985099,231,H
2023-04-30T19:05:36Z,ln7kg8ue,serial-reaction-time,1,R,4,0,3,3214,0,1,481.69999999552965,231,H
2023-04-30T19:05:36Z,ln7kg8ue,serial-reaction-time,1,P,4,1,4,3214,0,2,394.70000000298023,312,H
2023-04-30T19:05:38Z,ln7kg8ue,serial-reaction-time,1,R,4,1,5,3214,0,4,1985.6999999955297,124,H
2023-04-30T19:05:39Z,ln7kg8ue,serial-reaction-time,1,P,4,1,6,3214,0,1,383.70000000298023,241,H
2023-04-30T19:05:39Z,ln7kg8ue,serial-reaction-time,NA,R,4,1,7,3214,0,3,432.69999999552965,413,H
2023-04-30T19:05:39Z,ln7kg8ue,serial-reaction-time,1,R,4,0,7,3214,0,3,551.4999999925494,413,H
2023-04-30T19:05:40Z,ln7kg8ue,serial-reaction-time,1,P,4,1,8,3214,0,4,330.79999999701977,134,H
2023-04-30T19:05:40Z,ln7kg8ue,serial-reaction-time,1,R,4,1,9,3214,0,2,334.20000000298023,342,H
2023-04-30T19:05:41Z,ln7kg8ue,serial-reaction-time,1,P,4,1,10,3214,0,3,345.70000000298023,423,H
2023-04-30T19:05:41Z,ln7kg8ue,serial-reaction-time,1,R,4,1,11,3214,0,1,336,231,H
2023-04-30T19:05:42Z,ln7kg8ue,serial-reaction-time,1,P,4,1,12,3214,0,2,445.20000000298023,312,H
2023-04-30T19:05:42Z,ln7kg8ue,serial-reaction-time,1,R,4,1,13,3214,0,4,377.29999999701977,124,H
2023-04-30T19:05:43Z,ln7kg8ue,serial-reaction-time,1,P,4,1,14,3214,0,1,327.19999999552965,241,H
2023-04-30T19:05:43Z,ln7kg8ue,serial-reaction-time,1,R,4,1,15,3214,0,4,391.79999999701977,414,T
2023-04-30T19:05:44Z,ln7kg8ue,serial-reaction-time,1,P,4,1,16,3214,0,4,323.5,144,H
2023-04-30T19:05:44Z,ln7kg8ue,serial-reaction-time,1,R,4,1,17,3214,0,1,305.8999999985099,441,L
2023-04-30T19:05:45Z,ln7kg8ue,serial-reaction-time,NA,P,4,1,18,3214,0,3,326.1000000014901,413,H
2023-04-30T19:05:45Z,ln7kg8ue,serial-reaction-time,1,P,4,0,18,3214,0,3,503,413,H
2023-04-30T19:05:45Z,ln7kg8ue,serial-reaction-time,1,R,4,1,19,3214,0,4,371.6000000014901,134,H
2023-04-30T19:05:46Z,ln7kg8ue,serial-reaction-time,NA,P,4,1,20,3214,0,2,332.1000000014901,342,H
2023-04-30T19:05:46Z,ln7kg8ue,serial-reaction-time,1,P,4,0,20,3214,0,2,971.10000000149,342,H
2023-04-30T19:05:47Z,ln7kg8ue,serial-reaction-time,1,R,4,1,21,3214,0,1,459.20000000298023,421,L
2023-04-30T19:05:48Z,ln7kg8ue,serial-reaction-time,1,P,4,1,22,3214,0,1,375.70000000298023,211,H
2023-04-30T19:05:48Z,ln7kg8ue,serial-reaction-time,1,R,4,1,23,3214,0,2,340.1000000014901,112,L
2023-04-30T19:05:48Z,ln7kg8ue,serial-reaction-time,NA,P,4,1,24,3214,0,4,341.20000000298023,124,H
2023-04-30T19:05:49Z,ln7kg8ue,serial-reaction-time,1,P,4,0,24,3214,0,4,733.9000000059605,124,H
2023-04-30T19:05:49Z,ln7kg8ue,serial-reaction-time,1,R,4,1,25,3214,0,3,468.6000000014901,243,L
2023-04-30T19:05:50Z,ln7kg8ue,serial-reaction-time,1,P,4,1,26,3214,0,3,329.29999999701977,433,H
2023-04-30T19:05:50Z,ln7kg8ue,serial-reaction-time,1,R,4,1,27,3214,0,2,430.1000000014901,332,H
2023-04-30T19:05:51Z,ln7kg8ue,serial-reaction-time,1,P,4,1,28,3214,0,2,239.10000000149012,322,H
2023-04-30T19:05:51Z,ln7kg8ue,serial-reaction-time,1,R,4,1,29,3214,0,2,296.29999999701977,222,R
2023-04-30T19:05:52Z,ln7kg8ue,serial-reaction-time,1,P,4,1,30,3214,0,1,307.59999999403954,221,H
2023-04-30T19:05:52Z,ln7kg8ue,serial-reaction-time,NA,R,4,1,31,3214,0,3,391.19999999552965,213,L
2023-04-30T19:05:52Z,ln7kg8ue,serial-reaction-time,1,R,4,0,31,3214,0,3,566.2999999895692,213,L
2023-04-30T19:05:53Z,ln7kg8ue,serial-reaction-time,1,P,4,1,32,3214,0,4,355.1000000014901,134,H
2023-04-30T19:05:54Z,ln7kg8ue,serial-reaction-time,NA,R,4,1,33,3214,0,1,501.29999999701977,341,L
2023-04-30T19:05:54Z,ln7kg8ue,serial-reaction-time,1,R,4,0,33,3214,0,1,972.7999999970198,341,L
2023-04-30T19:05:54Z,ln7kg8ue,serial-reaction-time,1,P,4,1,34,3214,0,3,359.79999999701977,413,H
2023-04-30T19:05:55Z,ln7kg8ue,serial-reaction-time,NA,R,4,1,35,3214,0,1,380.20000000298023,131,T
2023-04-30T19:05:55Z,ln7kg8ue,serial-reaction-time,1,R,4,0,35,3214,0,1,627.2000000029802,131,T
2023-04-30T19:05:56Z,ln7kg8ue,serial-reaction-time,NA,P,4,1,36,3214,0,2,330.5,312,H
2023-04-30T19:05:56Z,ln7kg8ue,serial-reaction-time,1,P,4,0,36,3214,0,2,591.7000000029802,312,H
2023-04-30T19:05:56Z,ln7kg8ue,serial-reaction-time,1,R,4,1,37,3214,0,4,227.80000000447035,124,H
2023-04-30T19:05:57Z,ln7kg8ue,serial-reaction-time,1,P,4,1,38,3214,0,1,378.80000000447035,241,H
2023-04-30T19:05:57Z,ln7kg8ue,serial-reaction-time,1,R,4,1,39,3214,0,2,317.90000000596046,412,L
2023-04-30T19:05:58Z,ln7kg8ue,serial-reaction-time,1,P,4,1,40,3214,0,4,361.30000000447035,124,H
2023-04-30T19:05:59Z,ln7kg8ue,serial-reaction-time,1,R,4,1,41,3214,0,3,649.7999999970198,243,L
2023-04-30T19:05:59Z,ln7kg8ue,serial-reaction-time,1,P,4,1,42,3214,0,3,339.1000000014901,433,H
2023-04-30T19:06:00Z,ln7kg8ue,serial-reaction-time,NA,R,4,1,43,3214,0,2,476.5,332,H
2023-04-30T19:06:00Z,ln7kg8ue,serial-reaction-time,1,R,4,0,43,3214,0,2,700.8999999985099,332,H
2023-04-30T19:06:00Z,ln7kg8ue,serial-reaction-time,1,P,4,1,44,3214,0,2,323.6000000014901,322,H
2023-04-30T19:06:01Z,ln7kg8ue,serial-reaction-time,1,R,4,1,45,3214,0,1,352.3999999985099,221,H
2023-04-30T19:06:01Z,ln7kg8ue,serial-reaction-time,1,P,4,1,46,3214,0,1,410.3999999985099,211,H
2023-04-30T19:06:02Z,ln7kg8ue,serial-reaction-time,1,R,4,1,47,3214,0,3,987.89999999851,113,L
2023-04-30T19:06:03Z,ln7kg8ue,serial-reaction-time,NA,P,4,1,48,3214,0,4,231.10000000149012,134,H
2023-04-30T19:06:04Z,ln7kg8ue,serial-reaction-time,1,P,4,0,48,3214,0,4,1027.60000000149,134,H
2023-04-30T19:06:04Z,ln7kg8ue,serial-reaction-time,1,R,4,1,49,3214,0,4,281.29999999701977,344,L
2023-04-30T19:06:05Z,ln7kg8ue,serial-reaction-time,1,P,4,1,50,3214,0,3,407.70000000298023,443,H
2023-04-30T19:06:05Z,ln7kg8ue,serial-reaction-time,1,R,4,1,51,3214,0,4,357.1000000014901,434,T
2023-04-30T19:06:06Z,ln7kg8ue,serial-reaction-time,1,P,4,1,52,3214,0,2,1199.3000000044703,342,H
2023-04-30T19:06:07Z,ln7kg8ue,serial-reaction-time,1,R,4,1,53,3214,0,3,547.6000000014901,423,H
2023-04-30T19:06:08Z,ln7kg8ue,serial-reaction-time,1,P,4,1,54,3214,0,1,1237.6999999955297,231,H
2023-04-30T19:06:09Z,ln7kg8ue,serial-reaction-time,1,R,4,1,55,3214,0,2,367.69999999552965,312,H
2023-04-30T19:06:09Z,ln7kg8ue,serial-reaction-time,1,P,4,1,56,3214,0,4,343.1000000014901,124,H
2023-04-30T19:06:10Z,ln7kg8ue,serial-reaction-time,1,R,4,1,57,3214,0,4,360.3999999985099,244,L
2023-04-30T19:06:10Z,ln7kg8ue,serial-reaction-time,1,P,4,1,58,3214,0,3,424.6000000014901,443,H
2023-04-30T19:06:11Z,ln7kg8ue,serial-reaction-time,1,R,4,1,59,3214,0,1,352.8999999985099,431,L
2023-04-30T19:06:11Z,ln7kg8ue,serial-reaction-time,1,P,4,1,60,3214,0,2,348.79999999701977,312,H
2023-04-30T19:06:12Z,ln7kg8ue,serial-reaction-time,1,R,4,1,61,3214,0,4,293.29999999701977,124,H
2023-04-30T19:06:12Z,ln7kg8ue,serial-reaction-time,1,P,4,1,62,3214,0,1,350.29999999701977,241,H
2023-04-30T19:06:13Z,ln7kg8ue,serial-reaction-time,1,R,4,1,63,3214,0,2,338.19999999552965,412,L
2023-04-30T19:06:13Z,ln7kg8ue,serial-reaction-time,1,P,4,1,64,3214,0,4,322.6000000014901,124,H
2023-04-30T19:06:14Z,ln7kg8ue,serial-reaction-time,NA,R,4,1,65,3214,0,2,308.90000000596046,242,T
2023-04-30T19:06:14Z,ln7kg8ue,serial-reaction-time,NA,R,4,0,65,3214,0,2,604.9000000059605,242,T
2023-04-30T19:06:14Z,ln7kg8ue,serial-reaction-time,1,R,4,0,65,3214,0,2,875.4000000059605,242,T
2023-04-30T19:06:15Z,ln7kg8ue,serial-reaction-time,1,P,4,1,66,3214,0,3,492.29999999701977,423,H
2023-04-30T19:06:15Z,ln7kg8ue,serial-reaction-time,1,R,4,1,67,3214,0,1,565.3000000044703,231,H
2023-04-30T19:06:16Z,ln7kg8ue,serial-reaction-time,1,P,4,1,68,3214,0,2,858.1999999955297,312,H
2023-04-30T19:06:17Z,ln7kg8ue,serial-reaction-time,1,R,4,1,69,3214,0,4,279.40000000596046,124,H
2023-04-30T19:06:17Z,ln7kg8ue,serial-reaction-time,NA,P,4,1,70,3214,0,1,281.1000000014901,241,H
2023-04-30T19:06:17Z,ln7kg8ue,serial-reaction-time,1,P,4,0,70,3214,0,1,485,241,H
2023-04-30T19:06:18Z,ln7kg8ue,serial-reaction-time,1,R,4,1,71,3214,0,3,439.69999999552965,413,H
2023-04-30T19:06:19Z,ln7kg8ue,serial-reaction-time,1,P,4,1,72,3214,0,4,363.5,134,H
2023-04-30T19:06:19Z,ln7kg8ue,serial-reaction-time,1,R,4,1,73,3214,0,1,373.70000000298023,341,L
2023-04-30T19:06:20Z,ln7kg8ue,serial-reaction-time,1,P,4,1,74,3214,0,3,380.1000000014901,413,H
2023-04-30T19:06:20Z,ln7kg8ue,serial-reaction-time,1,R,4,1,75,3214,0,1,458.70000000298023,131,T
2023-04-30T19:06:21Z,ln7kg8ue,serial-reaction-time,1,P,4,1,76,3214,0,2,496.79999999701977,312,H
2023-04-30T19:06:21Z,ln7kg8ue,serial-reaction-time,1,R,4,1,77,3214,0,3,372.70000000298023,123,L
2023-04-30T19:06:22Z,ln7kg8ue,serial-reaction-time,1,P,4,1,78,3214,0,1,442.40000000596046,231,H
2023-04-30T19:06:22Z,ln7kg8ue,serial-reaction-time,NA,R,4,1,79,3214,0,4,299.20000000298023,314,L
2023-04-30T19:06:22Z,ln7kg8ue,serial-reaction-time,1,R,4,0,79,3214,0,4,442.5,314,L
2023-04-30T19:06:23Z,ln7kg8ue,serial-reaction-time,NA,P,4,1,80,3214,0,4,250.70000000298023,144,H
2023-04-30T19:06:23Z,ln7kg8ue,serial-reaction-time,1,P,4,0,80,3214,0,4,524.8000000044703,144,H
2023-04-30T19:06:28Z,ln7kg8ue,html-keyboard-response,NA,NA,NA,NA,NA,NA,NA,NA,NA,NA,NA
2023-04-30T19:06:39Z,ln7kg8ue,html-keyboard-response,NA,NA,NA,NA,NA,NA,NA,NA,NA,NA,NA
2023-04-30T19:06:40Z,ln7kg8ue,serial-reaction-time,1,R,5,1,1,3214,0,2,542.1999999955297,2,X
2023-04-30T19:06:41Z,ln7kg8ue,serial-reaction-time,1,P,5,1,2,3214,0,3,373.69999999552965,23,X
2023-04-30T19:06:41Z,ln7kg8ue,serial-reaction-time,1,R,5,1,3,3214,0,3,302.3999999985099,233,L
2023-04-30T19:06:42Z,ln7kg8ue,serial-reaction-time,1,P,5,1,4,3214,0,2,380.79999999701977,332,H
2023-04-30T19:06:42Z,ln7kg8ue,serial-reaction-time,1,R,5,1,5,3214,0,3,294.70000000298023,323,T
2023-04-30T19:06:42Z,ln7kg8ue,serial-reaction-time,1,P,5,1,6,3214,0,1,364.19999999552965,231,H
2023-04-30T19:06:43Z,ln7kg8ue,serial-reaction-time,1,R,5,1,7,3214,0,4,322.09999999403954,314,L
2023-04-30T19:06:43Z,ln7kg8ue,serial-reaction-time,1,P,5,1,8,3214,0,4,310.5,144,H
2023-04-30T19:06:44Z,ln7kg8ue,serial-reaction-time,1,R,5,1,9,3214,0,2,323.29999999701977,442,L
2023-04-30T19:06:44Z,ln7kg8ue,serial-reaction-time,1,P,5,1,10,3214,0,3,298.30000000447035,423,H
2023-04-30T19:06:45Z,ln7kg8ue,serial-reaction-time,1,R,5,1,11,3214,0,4,321.30000000447035,234,L
2023-04-30T19:06:45Z,ln7kg8ue,serial-reaction-time,1,P,5,1,12,3214,0,2,366,342,H
2023-04-30T19:06:46Z,ln7kg8ue,serial-reaction-time,1,R,5,1,13,3214,0,3,348.8999999985099,423,H
2023-04-30T19:06:46Z,ln7kg8ue,serial-reaction-time,1,P,5,1,14,3214,0,1,334,231,H
2023-04-30T19:06:47Z,ln7kg8ue,serial-reaction-time,1,R,5,1,15,3214,0,4,333.8999999985099,314,L
2023-04-30T19:06:47Z,ln7kg8ue,serial-reaction-time,1,P,5,1,16,3214,0,4,393.1000000014901,144,H
2023-04-30T19:06:48Z,ln7kg8ue,serial-reaction-time,1,R,5,1,17,3214,0,2,394.3999999985099,442,L
2023-04-30T19:06:48Z,ln7kg8ue,serial-reaction-time,1,P,5,1,18,3214,0,3,317.09999999403954,423,H
2023-04-30T19:06:49Z,ln7kg8ue,serial-reaction-time,1,R,5,1,19,3214,0,3,371.79999999701977,233,L
2023-04-30T19:06:49Z,ln7kg8ue,serial-reaction-time,1,P,5,1,20,3214,0,2,370.80000000447035,332,H
2023-04-30T19:06:50Z,ln7kg8ue,serial-reaction-time,1,R,5,1,21,3214,0,1,383.6000000014901,321,L
2023-04-30T19:06:50Z,ln7kg8ue,serial-reaction-time,1,P,5,1,22,3214,0,1,358.8999999985099,211,H
2023-04-30T19:06:50Z,ln7kg8ue,serial-reaction-time,1,R,5,1,23,3214,0,3,343,113,L
2023-04-30T19:06:51Z,ln7kg8ue,serial-reaction-time,1,P,5,1,24,3214,0,4,335.79999999701977,134,H
2023-04-30T19:06:51Z,ln7kg8ue,serial-reaction-time,1,R,5,1,25,3214,0,1,351.8999999985099,341,L
2023-04-30T19:06:52Z,ln7kg8ue,serial-reaction-time,1,P,5,1,26,3214,0,3,320.90000000596046,413,H
2023-04-30T19:06:52Z,ln7kg8ue,serial-reaction-time,1,R,5,1,27,3214,0,4,333,134,H
2023-04-30T19:06:53Z,ln7kg8ue,serial-reaction-time,1,P,5,1,28,3214,0,2,355.6000000014901,342,H
2023-04-30T19:06:53Z,ln7kg8ue,serial-reaction-time,1,R,5,1,29,3214,0,2,376.40000000596046,422,L
2023-04-30T19:06:54Z,ln7kg8ue,serial-reaction-time,1,P,5,1,30,3214,0,1,326.3999999985099,221,H
2023-04-30T19:06:54Z,ln7kg8ue,serial-reaction-time,1,R,5,1,31,3214,0,3,440.79999999701977,213,L
2023-04-30T19:06:55Z,ln7kg8ue,serial-reaction-time,1,P,5,1,32,3214,0,4,383.1000000014901,134,H
2023-04-30T19:06:55Z,ln7kg8ue,serial-reaction-time,1,R,5,1,33,3214,0,2,345.69999999552965,342,H
2023-04-30T19:06:56Z,ln7kg8ue,serial-reaction-time,1,P,5,1,34,3214,0,3,378.20000000298023,423,H
2023-04-30T19:06:56Z,ln7kg8ue,serial-reaction-time,1,R,5,1,35,3214,0,4,342.20000000298023,234,L
2023-04-30T19:06:57Z,ln7kg8ue,serial-reaction-time,1,P,5,1,36,3214,0,2,396.70000000298023,342,H
2023-04-30T19:06:57Z,ln7kg8ue,serial-reaction-time,1,R,5,1,37,3214,0,4,473,424,T
2023-04-30T19:06:58Z,ln7kg8ue,serial-reaction-time,1,P,5,1,38,3214,0,1,380.80000000447035,241,H
2023-04-30T19:06:58Z,ln7kg8ue,serial-reaction-time,1,R,5,1,39,3214,0,1,404.79999999701977,411,L
2023-04-30T19:06:59Z,ln7kg8ue,serial-reaction-time,1,P,5,1,40,3214,0,4,444.3999999985099,114,H
2023-04-30T19:07:00Z,ln7kg8ue,serial-reaction-time,1,R,5,1,41,3214,0,1,362.19999999552965,141,T
2023-04-30T19:07:00Z,ln7kg8ue,serial-reaction-time,1,P,5,1,42,3214,0,3,560.7999999970198,413,H
2023-04-30T19:07:01Z,ln7kg8ue,serial-reaction-time,1,R,5,1,43,3214,0,2,324.79999999701977,132,L
2023-04-30T19:07:01Z,ln7kg8ue,serial-reaction-time,1,P,5,1,44,3214,0,2,400.69999999552965,322,H
2023-04-30T19:07:02Z,ln7kg8ue,serial-reaction-time,1,R,5,1,45,3214,0,1,425.70000000298023,221,H
2023-04-30T19:07:02Z,ln7kg8ue,serial-reaction-time,1,P,5,1,46,3214,0,1,354.8999999985099,211,H
2023-04-30T19:07:03Z,ln7kg8ue,serial-reaction-time,1,R,5,1,47,3214,0,1,341.1000000014901,111,R
2023-04-30T19:07:03Z,ln7kg8ue,serial-reaction-time,1,P,5,1,48,3214,0,4,396.8999999985099,114,H
2023-04-30T19:07:04Z,ln7kg8ue,serial-reaction-time,1,R,5,1,49,3214,0,2,308,142,L
2023-04-30T19:07:04Z,ln7kg8ue,serial-reaction-time,1,P,5,1,50,3214,0,3,338.3999999985099,423,H
2023-04-30T19:07:05Z,ln7kg8ue,serial-reaction-time,1,R,5,1,51,3214,0,4,570.7999999970198,234,L
2023-04-30T19:07:05Z,ln7kg8ue,serial-reaction-time,1,P,5,1,52,3214,0,2,484.20000000298023,342,H
2023-04-30T19:07:06Z,ln7kg8ue,serial-reaction-time,1,R,5,1,53,3214,0,4,375.20000000298023,424,T
2023-04-30T19:07:06Z,ln7kg8ue,serial-reaction-time,1,P,5,1,54,3214,0,1,436.6000000014901,241,H
2023-04-30T19:07:07Z,ln7kg8ue,serial-reaction-time,1,R,5,1,55,3214,0,3,384.19999999552965,413,H
2023-04-30T19:07:07Z,ln7kg8ue,serial-reaction-time,1,P,5,1,56,3214,0,4,257.30000000447035,134,H
2023-04-30T19:07:08Z,ln7kg8ue,serial-reaction-time,1,R,5,1,57,3214,0,4,392.5,344,L
2023-04-30T19:07:08Z,ln7kg8ue,serial-reaction-time,1,P,5,1,58,3214,0,3,471.79999999701977,443,H
2023-04-30T19:07:09Z,ln7kg8ue,serial-reaction-time,1,R,5,1,59,3214,0,4,423.3999999985099,434,T
2023-04-30T19:07:09Z,ln7kg8ue,serial-reaction-time,NA,P,5,1,60,3214,0,2,126.10000000149012,342,H
2023-04-30T19:07:10Z,ln7kg8ue,serial-reaction-time,1,P,5,0,60,3214,0,2,576.8999999985099,342,H
2023-04-30T19:07:10Z,ln7kg8ue,serial-reaction-time,1,R,5,1,61,3214,0,3,458.40000000596046,423,H
2023-04-30T19:07:11Z,ln7kg8ue,serial-reaction-time,NA,P,5,1,62,3214,0,1,393.70000000298023,231,H
2023-04-30T19:07:11Z,ln7kg8ue,serial-reaction-time,1,P,5,0,62,3214,0,1,808.5000000074506,231,H
2023-04-30T19:07:12Z,ln7kg8ue,serial-reaction-time,1,R,5,1,63,3214,0,1,310.30000000447035,311,L
2023-04-30T19:07:12Z,ln7kg8ue,serial-reaction-time,1,P,5,1,64,3214,0,4,379,114,H
2023-04-30T19:07:13Z,ln7kg8ue,serial-reaction-time,1,R,5,1,65,3214,0,2,434.1000000014901,142,L
2023-04-30T19:07:13Z,ln7kg8ue,serial-reaction-time,NA,P,5,1,66,3214,0,3,284.30000000447035,423,H
2023-04-30T19:07:14Z,ln7kg8ue,serial-reaction-time,1,P,5,0,66,3214,0,3,751.2000000029802,423,H
2023-04-30T19:07:14Z,ln7kg8ue,serial-reaction-time,1,R,5,1,67,3214,0,3,371,233,L
2023-04-30T19:07:15Z,ln7kg8ue,serial-reaction-time,1,P,5,1,68,3214,0,2,403.5,332,H
2023-04-30T19:07:15Z,ln7kg8ue,serial-reaction-time,1,R,5,1,69,3214,0,3,384,323,T
2023-04-30T19:07:16Z,ln7kg8ue,serial-reaction-time,1,P,5,1,70,3214,0,1,444.3999999985099,231,H
2023-04-30T19:07:16Z,ln7kg8ue,serial-reaction-time,1,R,5,1,71,3214,0,1,268.5,311,L
2023-04-30T19:07:17Z,ln7kg8ue,serial-reaction-time,1,P,5,1,72,3214,0,4,464.70000000298023,114,H
2023-04-30T19:07:17Z,ln7kg8ue,serial-reaction-time,1,R,5,1,73,3214,0,4,370.3999999985099,144,H
2023-04-30T19:07:18Z,ln7kg8ue,serial-reaction-time,1,P,5,1,74,3214,0,3,503.09999999403954,443,H
2023-04-30T19:07:19Z,ln7kg8ue,serial-reaction-time,1,R,5,1,75,3214,0,1,648.3999999985099,431,L
2023-04-30T19:07:19Z,ln7kg8ue,serial-reaction-time,1,P,5,1,76,3214,0,2,515.6999999955297,312,H
2023-04-30T19:07:20Z,ln7kg8ue,serial-reaction-time,1,R,5,1,77,3214,0,3,362.79999999701977,123,L
2023-04-30T19:07:20Z,ln7kg8ue,serial-reaction-time,1,P,5,1,78,3214,0,1,350.1000000014901,231,H
2023-04-30T19:07:21Z,ln7kg8ue,serial-reaction-time,1,R,5,1,79,3214,0,3,341.5,313,T
2023-04-30T19:07:21Z,ln7kg8ue,serial-reaction-time,1,P,5,1,80,3214,0,4,364.69999999552965,134,H
2023-04-30T19:07:26Z,ln7kg8ue,html-keyboard-response,NA,NA,NA,NA,NA,NA,NA,NA,NA,NA,NA
2023-04-30T19:07:29Z,ln7kg8ue,html-keyboard-response,NA,NA,NA,NA,NA,NA,NA,NA,NA,NA,NA
2023-04-30T19:07:30Z,ln7kg8ue,fullscreen,NA,NA,NA,NA,NA,NA,NA,NA,NA,NA,NA
2023-04-30T20:29:22Z,0ldaeete,fullscreen,NA,NA,NA,NA,NA,NA,NA,NA,NA,NA,NA
2023-04-30T20:29:28Z,0ldaeete,html-keyboard-response,NA,NA,NA,NA,NA,NA,NA,NA,NA,NA,NA
2023-04-30T20:29:31Z,0ldaeete,serial-reaction-time,1,R,1,1,1,3241,0,3,1810,3,X
2023-04-30T20:29:31Z,0ldaeete,serial-reaction-time,1,P,1,1,2,3241,0,3,258,33,X
2023-04-30T20:29:32Z,0ldaeete,serial-reaction-time,1,R,1,1,3,3241,0,2,373,332,H
2023-04-30T20:29:33Z,0ldaeete,serial-reaction-time,1,P,1,1,4,3241,0,2,352,322,H
2023-04-30T20:29:33Z,0ldaeete,serial-reaction-time,1,R,1,1,5,3241,0,4,334,224,H
2023-04-30T20:29:33Z,0ldaeete,serial-reaction-time,1,P,1,1,6,3241,0,4,354,244,H
2023-04-30T20:29:34Z,0ldaeete,serial-reaction-time,1,R,1,1,7,3241,0,4,390,444,R
2023-04-30T20:29:35Z,0ldaeete,serial-reaction-time,1,P,1,1,8,3241,0,1,372,441,H
2023-04-30T20:29:35Z,0ldaeete,serial-reaction-time,1,R,1,1,9,3241,0,2,349,412,L
2023-04-30T20:29:36Z,0ldaeete,serial-reaction-time,1,P,1,1,10,3241,0,3,461,123,H
2023-04-30T20:29:36Z,0ldaeete,serial-reaction-time,1,R,1,1,11,3241,0,3,344,233,L
2023-04-30T20:29:37Z,0ldaeete,serial-reaction-time,1,P,1,1,12,3241,0,2,362,332,H
2023-04-30T20:29:37Z,0ldaeete,serial-reaction-time,1,R,1,1,13,3241,0,2,338,322,H
2023-04-30T20:29:38Z,0ldaeete,serial-reaction-time,1,P,1,1,14,3241,0,4,329,224,H
2023-04-30T20:29:38Z,0ldaeete,serial-reaction-time,NA,R,1,1,15,3241,0,1,359,241,L
2023-04-30T20:29:38Z,0ldaeete,serial-reaction-time,1,R,1,0,15,3241,0,1,393,241,L
2023-04-30T20:29:39Z,0ldaeete,serial-reaction-time,1,P,1,1,16,3241,0,1,334,411,H
2023-04-30T20:29:39Z,0ldaeete,serial-reaction-time,1,R,1,1,17,3241,0,4,358,114,L
2023-04-30T20:29:40Z,0ldaeete,serial-reaction-time,1,P,1,1,18,3241,0,3,395,143,H
2023-04-30T20:29:40Z,0ldaeete,serial-reaction-time,1,R,1,1,19,3241,0,1,331,431,H
2023-04-30T20:29:41Z,0ldaeete,serial-reaction-time,1,P,1,1,20,3241,0,2,346,312,H
2023-04-30T20:29:41Z,0ldaeete,serial-reaction-time,1,R,1,1,21,3241,0,1,343,121,T
2023-04-30T20:29:41Z,0ldaeete,serial-reaction-time,1,P,1,1,22,3241,0,4,322,214,H
2023-04-30T20:29:42Z,0ldaeete,serial-reaction-time,1,R,1,1,23,3241,0,1,402,141,T
2023-04-30T20:29:43Z,0ldaeete,serial-reaction-time,1,P,1,1,24,3241,0,1,403,411,H
2023-04-30T20:29:43Z,0ldaeete,serial-reaction-time,1,R,1,1,25,3241,0,2,317,112,L
2023-04-30T20:29:44Z,0ldaeete,serial-reaction-time,1,P,1,1,26,3241,0,3,395,123,H
2023-04-30T20:29:44Z,0ldaeete,serial-reaction-time,1,R,1,1,27,3241,0,4,396,234,H
2023-04-30T20:29:45Z,0ldaeete,serial-reaction-time,1,P,1,1,28,3241,0,2,331,342,H
2023-04-30T20:29:45Z,0ldaeete,serial-reaction-time,1,R,1,1,29,3241,0,4,339,424,T
2023-04-30T20:29:45Z,0ldaeete,serial-reaction-time,1,P,1,1,30,3241,0,4,326,244,H
2023-04-30T20:29:46Z,0ldaeete,serial-reaction-time,1,R,1,1,31,3241,0,2,322,442,L
2023-04-30T20:29:46Z,0ldaeete,serial-reaction-time,1,P,1,1,32,3241,0,1,378,421,H
2023-04-30T20:29:47Z,0ldaeete,serial-reaction-time,1,R,1,1,33,3241,0,3,378,213,L
2023-04-30T20:29:47Z,0ldaeete,serial-reaction-time,1,P,1,1,34,3241,0,3,311,133,H
2023-04-30T20:29:48Z,0ldaeete,serial-reaction-time,1,R,1,1,35,3241,0,4,299,334,L
2023-04-30T20:29:48Z,0ldaeete,serial-reaction-time,1,P,1,1,36,3241,0,2,479,342,H
2023-04-30T20:29:49Z,0ldaeete,serial-reaction-time,1,R,1,1,37,3241,0,4,368,424,T
2023-04-30T20:29:49Z,0ldaeete,serial-reaction-time,1,P,1,1,38,3241,0,4,342,244,H
2023-04-30T20:29:50Z,0ldaeete,serial-reaction-time,1,R,1,1,39,3241,0,4,335,444,R
2023-04-30T20:29:50Z,0ldaeete,serial-reaction-time,1,P,1,1,40,3241,0,1,347,441,H
2023-04-30T20:29:51Z,0ldaeete,serial-reaction-time,1,R,1,1,41,3241,0,3,552,413,L
2023-04-30T20:29:51Z,0ldaeete,serial-reaction-time,1,P,1,1,42,3241,0,3,268,133,H
2023-04-30T20:29:52Z,0ldaeete,serial-reaction-time,1,R,1,1,43,3241,0,4,312,334,L
2023-04-30T20:29:52Z,0ldaeete,serial-reaction-time,NA,P,1,1,44,3241,0,2,362,342,H
2023-04-30T20:29:53Z,0ldaeete,serial-reaction-time,1,P,1,0,44,3241,0,2,698,342,H
2023-04-30T20:29:53Z,0ldaeete,serial-reaction-time,1,R,1,1,45,3241,0,1,388,421,H
2023-04-30T20:29:54Z,0ldaeete,serial-reaction-time,1,P,1,1,46,3241,0,4,355,214,H
2023-04-30T20:29:54Z,0ldaeete,serial-reaction-time,1,R,1,1,47,3241,0,2,414,142,L
2023-04-30T20:29:55Z,0ldaeete,serial-reaction-time,1,P,1,1,48,3241,0,1,400,421,H
2023-04-30T20:29:55Z,0ldaeete,serial-reaction-time,1,R,1,1,49,3241,0,4,388,214,H
2023-04-30T20:29:56Z,0ldaeete,serial-reaction-time,1,P,1,1,50,3241,0,3,466,143,H
2023-04-30T20:29:56Z,0ldaeete,serial-reaction-time,1,R,1,1,51,3241,0,3,329,433,L
2023-04-30T20:29:57Z,0ldaeete,serial-reaction-time,1,P,1,1,52,3241,0,2,404,332,H
2023-04-30T20:29:58Z,0ldaeete,serial-reaction-time,NA,R,1,1,53,3241,0,3,377,323,T
2023-04-30T20:29:58Z,0ldaeete,serial-reaction-time,1,R,1,0,53,3241,0,3,488,323,T
2023-04-30T20:29:58Z,0ldaeete,serial-reaction-time,1,P,1,1,54,3241,0,4,424,234,H
2023-04-30T20:29:59Z,0ldaeete,serial-reaction-time,NA,R,1,1,55,3241,0,1,472,341,L
2023-04-30T20:29:59Z,0ldaeete,serial-reaction-time,1,R,1,0,55,3241,0,1,742,341,L
2023-04-30T20:30:00Z,0ldaeete,serial-reaction-time,1,P,1,1,56,3241,0,1,330,411,H
2023-04-30T20:30:00Z,0ldaeete,serial-reaction-time,1,R,1,1,57,3241,0,2,457,112,L
2023-04-30T20:30:01Z,0ldaeete,serial-reaction-time,1,P,1,1,58,3241,0,3,535,123,H
2023-04-30T20:30:01Z,0ldaeete,serial-reaction-time,1,R,1,1,59,3241,0,3,273,233,L
2023-04-30T20:30:02Z,0ldaeete,serial-reaction-time,1,P,1,1,60,3241,0,2,400,332,H
2023-04-30T20:30:02Z,0ldaeete,serial-reaction-time,NA,R,1,1,61,3241,0,3,451,323,T
2023-04-30T20:30:03Z,0ldaeete,serial-reaction-time,1,R,1,0,61,3241,0,3,766,323,T
2023-04-30T20:30:03Z,0ldaeete,serial-reaction-time,1,P,1,1,62,3241,0,4,418,234,H
2023-04-30T20:30:04Z,0ldaeete,serial-reaction-time,1,R,1,1,63,3241,0,3,503,343,T
2023-04-30T20:30:05Z,0ldaeete,serial-reaction-time,1,P,1,1,64,3241,0,1,425,431,H
2023-04-30T20:30:05Z,0ldaeete,serial-reaction-time,1,R,1,1,65,3241,0,3,359,313,T
2023-04-30T20:30:05Z,0ldaeete,serial-reaction-time,1,P,1,1,66,3241,0,3,337,133,H
2023-04-30T20:30:06Z,0ldaeete,serial-reaction-time,1,R,1,1,67,3241,0,4,376,334,L
2023-04-30T20:30:07Z,0ldaeete,serial-reaction-time,1,P,1,1,68,3241,0,2,430,342,H
2023-04-30T20:30:07Z,0ldaeete,serial-reaction-time,1,R,1,1,69,3241,0,3,470,423,L
2023-04-30T20:30:08Z,0ldaeete,serial-reaction-time,1,P,1,1,70,3241,0,4,420,234,H
2023-04-30T20:30:08Z,0ldaeete,serial-reaction-time,1,R,1,1,71,3241,0,3,450,343,T
2023-04-30T20:30:09Z,0ldaeete,serial-reaction-time,1,P,1,1,72,3241,0,1,367,431,H
2023-04-30T20:30:09Z,0ldaeete,serial-reaction-time,1,R,1,1,73,3241,0,2,358,312,H
2023-04-30T20:30:10Z,0ldaeete,serial-reaction-time,1,P,1,1,74,3241,0,3,577,123,H
2023-04-30T20:30:11Z,0ldaeete,serial-reaction-time,1,R,1,1,75,3241,0,4,373,234,H
2023-04-30T20:30:11Z,0ldaeete,serial-reaction-time,1,P,1,1,76,3241,0,2,339,342,H
2023-04-30T20:30:11Z,0ldaeete,serial-reaction-time,1,R,1,1,77,3241,0,2,300,422,L
2023-04-30T20:30:13Z,0ldaeete,serial-reaction-time,1,P,1,1,78,3241,0,4,1639,224,H
2023-04-30T20:30:16Z,0ldaeete,serial-reaction-time,1,R,1,1,79,3241,0,2,2749,242,T
2023-04-30T20:30:17Z,0ldaeete,serial-reaction-time,1,P,1,1,80,3241,0,1,438,421,H
2023-04-30T20:30:22Z,0ldaeete,html-keyboard-response,NA,NA,NA,NA,NA,NA,NA,NA,NA,NA,NA
2023-04-30T20:30:22Z,0ldaeete,html-keyboard-response,NA,NA,NA,NA,NA,NA,NA,NA,NA,NA,NA
2023-04-30T20:30:24Z,0ldaeete,serial-reaction-time,1,R,2,1,1,3241,0,4,341,4,X
2023-04-30T20:30:24Z,0ldaeete,serial-reaction-time,1,P,2,1,2,3241,0,3,408,43,X
2023-04-30T20:30:25Z,0ldaeete,serial-reaction-time,1,R,2,1,3,3241,0,1,361,431,H
2023-04-30T20:30:25Z,0ldaeete,serial-reaction-time,1,P,2,1,4,3241,0,2,340,312,H
2023-04-30T20:30:26Z,0ldaeete,serial-reaction-time,1,R,2,1,5,3241,0,3,415,123,H
2023-04-30T20:30:26Z,0ldaeete,serial-reaction-time,1,P,2,1,6,3241,0,4,438,234,H
2023-04-30T20:30:27Z,0ldaeete,serial-reaction-time,1,R,2,1,7,3241,0,3,437,343,T
2023-04-30T20:30:28Z,0ldaeete,serial-reaction-time,1,P,2,1,8,3241,0,1,404,431,H
2023-04-30T20:30:28Z,0ldaeete,serial-reaction-time,1,R,2,1,9,3241,0,1,322,311,L
2023-04-30T20:30:29Z,0ldaeete,serial-reaction-time,1,P,2,1,10,3241,0,3,371,113,H
2023-04-30T20:30:29Z,0ldaeete,serial-reaction-time,1,R,2,1,11,3241,0,1,339,131,T
2023-04-30T20:30:30Z,0ldaeete,serial-reaction-time,NA,P,2,1,12,3241,0,2,352,312,H
2023-04-30T20:30:30Z,0ldaeete,serial-reaction-time,1,P,2,0,12,3241,0,2,671,312,H
2023-04-30T20:30:30Z,0ldaeete,serial-reaction-time,1,R,2,1,13,3241,0,2,294,122,L
2023-04-30T20:30:31Z,0ldaeete,serial-reaction-time,1,P,2,1,14,3241,0,4,379,224,H
2023-04-30T20:30:31Z,0ldaeete,serial-reaction-time,1,R,2,1,15,3241,0,2,335,242,T
2023-04-30T20:30:32Z,0ldaeete,serial-reaction-time,1,P,2,1,16,3241,0,1,371,421,H
2023-04-30T20:30:32Z,0ldaeete,serial-reaction-time,NA,R,2,1,17,3241,0,3,305,213,L
2023-04-30T20:30:33Z,0ldaeete,serial-reaction-time,1,R,2,0,17,3241,0,3,623,213,L
2023-04-30T20:30:33Z,0ldaeete,serial-reaction-time,1,P,2,1,18,3241,0,3,284,133,H
2023-04-30T20:30:33Z,0ldaeete,serial-reaction-time,1,R,2,1,19,3241,0,3,305,333,R
2023-04-30T20:30:34Z,0ldaeete,serial-reaction-time,1,P,2,1,20,3241,0,2,390,332,H
2023-04-30T20:30:34Z,0ldaeete,serial-reaction-time,1,R,2,1,21,3241,0,1,375,321,L
2023-04-30T20:30:35Z,0ldaeete,serial-reaction-time,1,P,2,1,22,3241,0,4,363,214,H
2023-04-30T20:30:35Z,0ldaeete,serial-reaction-time,1,R,2,1,23,3241,0,2,342,142,L
2023-04-30T20:30:36Z,0ldaeete,serial-reaction-time,NA,P,2,1,24,3241,0,1,255,421,H
2023-04-30T20:30:36Z,0ldaeete,serial-reaction-time,1,P,2,0,24,3241,0,1,535,421,H
2023-04-30T20:30:37Z,0ldaeete,serial-reaction-time,1,R,2,1,25,3241,0,3,323,213,L
2023-04-30T20:30:37Z,0ldaeete,serial-reaction-time,1,P,2,1,26,3241,0,3,289,133,H
2023-04-30T20:30:38Z,0ldaeete,serial-reaction-time,1,R,2,1,27,3241,0,3,307,333,R
2023-04-30T20:30:38Z,0ldaeete,serial-reaction-time,1,P,2,1,28,3241,0,2,328,332,H
2023-04-30T20:30:39Z,0ldaeete,serial-reaction-time,1,R,2,1,29,3241,0,3,462,323,T
2023-04-30T20:30:39Z,0ldaeete,serial-reaction-time,1,P,2,1,30,3241,0,4,385,234,H
2023-04-30T20:30:40Z,0ldaeete,serial-reaction-time,1,R,2,1,31,3241,0,2,323,342,H
2023-04-30T20:30:40Z,0ldaeete,serial-reaction-time,1,P,2,1,32,3241,0,1,466,421,H
2023-04-30T20:30:41Z,0ldaeete,serial-reaction-time,NA,R,2,1,33,3241,0,1,352,211,L
2023-04-30T20:30:41Z,0ldaeete,serial-reaction-time,1,R,2,0,33,3241,0,1,371,211,L
2023-04-30T20:30:41Z,0ldaeete,serial-reaction-time,1,P,2,1,34,3241,0,3,551,113,H
2023-04-30T20:30:42Z,0ldaeete,serial-reaction-time,1,R,2,1,35,3241,0,1,435,131,T
2023-04-30T20:30:42Z,0ldaeete,serial-reaction-time,1,P,2,1,36,3241,0,2,407,312,H
2023-04-30T20:30:43Z,0ldaeete,serial-reaction-time,1,R,2,1,37,3241,0,1,307,121,T
2023-04-30T20:30:43Z,0ldaeete,serial-reaction-time,1,P,2,1,38,3241,0,4,379,214,H
2023-04-30T20:30:44Z,0ldaeete,serial-reaction-time,1,R,2,1,39,3241,0,3,450,143,H
2023-04-30T20:30:45Z,0ldaeete,serial-reaction-time,1,P,2,1,40,3241,0,1,412,431,H
2023-04-30T20:30:45Z,0ldaeete,serial-reaction-time,1,R,2,1,41,3241,0,2,261,312,H
2023-04-30T20:30:46Z,0ldaeete,serial-reaction-time,1,P,2,1,42,3241,0,3,477,123,H
2023-04-30T20:30:46Z,0ldaeete,serial-reaction-time,1,R,2,1,43,3241,0,3,284,233,L
2023-04-30T20:30:47Z,0ldaeete,serial-reaction-time,1,P,2,1,44,3241,0,2,375,332,H
2023-04-30T20:30:47Z,0ldaeete,serial-reaction-time,1,R,2,1,45,3241,0,4,451,324,L
2023-04-30T20:30:48Z,0ldaeete,serial-reaction-time,1,P,2,1,46,3241,0,4,365,244,H
2023-04-30T20:30:48Z,0ldaeete,serial-reaction-time,1,R,2,1,47,3241,0,4,342,444,R
2023-04-30T20:30:49Z,0ldaeete,serial-reaction-time,1,P,2,1,48,3241,0,1,456,441,H
2023-04-30T20:30:49Z,0ldaeete,serial-reaction-time,1,R,2,1,49,3241,0,2,437,412,L
2023-04-30T20:30:50Z,0ldaeete,serial-reaction-time,1,P,2,1,50,3241,0,3,373,123,H
2023-04-30T20:30:50Z,0ldaeete,serial-reaction-time,1,R,2,1,51,3241,0,1,369,231,L
2023-04-30T20:30:51Z,0ldaeete,serial-reaction-time,1,P,2,1,52,3241,0,2,379,312,H
2023-04-30T20:30:51Z,0ldaeete,serial-reaction-time,1,R,2,1,53,3241,0,2,326,122,L
2023-04-30T20:30:52Z,0ldaeete,serial-reaction-time,1,P,2,1,54,3241,0,4,404,224,H
2023-04-30T20:30:52Z,0ldaeete,serial-reaction-time,1,R,2,1,55,3241,0,4,328,244,H
2023-04-30T20:30:53Z,0ldaeete,serial-reaction-time,NA,P,2,1,56,3241,0,1,337,441,H
2023-04-30T20:30:53Z,0ldaeete,serial-reaction-time,1,P,2,0,56,3241,0,1,696,441,H
2023-04-30T20:30:54Z,0ldaeete,serial-reaction-time,1,R,2,1,57,3241,0,4,354,414,T
2023-04-30T20:30:54Z,0ldaeete,serial-reaction-time,1,P,2,1,58,3241,0,3,464,143,H
2023-04-30T20:30:55Z,0ldaeete,serial-reaction-time,1,R,2,1,59,3241,0,4,381,434,T
2023-04-30T20:30:55Z,0ldaeete,serial-reaction-time,1,P,2,1,60,3241,0,2,344,342,H
2023-04-30T20:30:56Z,0ldaeete,serial-reaction-time,1,R,2,1,61,3241,0,4,369,424,T
2023-04-30T20:30:56Z,0ldaeete,serial-reaction-time,NA,P,2,1,62,3241,0,4,279,244,H
2023-04-30T20:30:57Z,0ldaeete,serial-reaction-time,1,P,2,0,62,3241,0,4,636,244,H
2023-04-30T20:30:57Z,0ldaeete,serial-reaction-time,1,R,2,1,63,3241,0,1,428,441,H
2023-04-30T20:30:58Z,0ldaeete,serial-reaction-time,1,P,2,1,64,3241,0,1,261,411,H
2023-04-30T20:30:58Z,0ldaeete,serial-reaction-time,1,R,2,1,65,3241,0,4,384,114,L
2023-04-30T20:30:59Z,0ldaeete,serial-reaction-time,1,P,2,1,66,3241,0,3,435,143,H
2023-04-30T20:30:59Z,0ldaeete,serial-reaction-time,1,R,2,1,67,3241,0,2,381,432,L
2023-04-30T20:31:00Z,0ldaeete,serial-reaction-time,1,P,2,1,68,3241,0,2,307,322,H
2023-04-30T20:31:00Z,0ldaeete,serial-reaction-time,NA,R,2,1,69,3241,0,3,414,223,L
2023-04-30T20:31:01Z,0ldaeete,serial-reaction-time,1,R,2,0,69,3241,0,3,818,223,L
2023-04-30T20:31:01Z,0ldaeete,serial-reaction-time,1,P,2,1,70,3241,0,4,416,234,H
2023-04-30T20:31:02Z,0ldaeete,serial-reaction-time,1,R,2,1,71,3241,0,4,322,344,L
2023-04-30T20:31:02Z,0ldaeete,serial-reaction-time,1,P,2,1,72,3241,0,1,449,441,H
2023-04-30T20:31:03Z,0ldaeete,serial-reaction-time,1,R,2,1,73,3241,0,4,319,414,T
2023-04-30T20:31:03Z,0ldaeete,serial-reaction-time,1,P,2,1,74,3241,0,3,416,143,H
2023-04-30T20:31:04Z,0ldaeete,serial-reaction-time,1,R,2,1,75,3241,0,2,335,432,L
2023-04-30T20:31:04Z,0ldaeete,serial-reaction-time,1,P,2,1,76,3241,0,2,280,322,H
2023-04-30T20:31:05Z,0ldaeete,serial-reaction-time,1,R,2,1,77,3241,0,2,379,222,R
2023-04-30T20:31:05Z,0ldaeete,serial-reaction-time,1,P,2,1,78,3241,0,4,375,224,H
2023-04-30T20:31:06Z,0ldaeete,serial-reaction-time,1,R,2,1,79,3241,0,3,441,243,L
2023-04-30T20:31:06Z,0ldaeete,serial-reaction-time,1,P,2,1,80,3241,0,1,454,431,H
2023-04-30T20:31:11Z,0ldaeete,html-keyboard-response,NA,NA,NA,NA,NA,NA,NA,NA,NA,NA,NA
2023-04-30T20:31:16Z,0ldaeete,html-keyboard-response,NA,NA,NA,NA,NA,NA,NA,NA,NA,NA,NA
2023-04-30T20:31:17Z,0ldaeete,serial-reaction-time,1,R,3,1,1,3241,0,1,365,1,X
2023-04-30T20:31:18Z,0ldaeete,serial-reaction-time,1,P,3,1,2,3241,0,3,339,13,X
2023-04-30T20:31:18Z,0ldaeete,serial-reaction-time,1,R,3,1,3,3241,0,2,381,132,L
2023-04-30T20:31:19Z,0ldaeete,serial-reaction-time,1,P,3,1,4,3241,0,2,339,322,H
2023-04-30T20:31:19Z,0ldaeete,serial-reaction-time,1,R,3,1,5,3241,0,4,393,224,H
2023-04-30T20:31:20Z,0ldaeete,serial-reaction-time,1,P,3,1,6,3241,0,4,285,244,H
2023-04-30T20:31:20Z,0ldaeete,serial-reaction-time,1,R,3,1,7,3241,0,3,356,443,L
2023-04-30T20:31:21Z,0ldaeete,serial-reaction-time,1,P,3,1,8,3241,0,1,355,431,H
2023-04-30T20:31:21Z,0ldaeete,serial-reaction-time,1,R,3,1,9,3241,0,2,349,312,H
2023-04-30T20:31:22Z,0ldaeete,serial-reaction-time,NA,P,3,1,10,3241,0,3,324,123,H
2023-04-30T20:31:22Z,0ldaeete,serial-reaction-time,1,P,3,0,10,3241,0,3,422,123,H
2023-04-30T20:31:22Z,0ldaeete,serial-reaction-time,1,R,3,1,11,3241,0,2,376,232,T
2023-04-30T20:31:23Z,0ldaeete,serial-reaction-time,1,P,3,1,12,3241,0,2,291,322,H
2023-04-30T20:31:23Z,0ldaeete,serial-reaction-time,1,R,3,1,13,3241,0,2,289,222,R
2023-04-30T20:31:24Z,0ldaeete,serial-reaction-time,1,P,3,1,14,3241,0,4,311,224,H
2023-04-30T20:31:24Z,0ldaeete,serial-reaction-time,NA,R,3,1,15,3241,0,3,362,243,L
2023-04-30T20:31:24Z,0ldaeete,serial-reaction-time,1,R,3,0,15,3241,0,3,644,243,L
2023-04-30T20:31:25Z,0ldaeete,serial-reaction-time,1,P,3,1,16,3241,0,1,339,431,H
2023-04-30T20:31:25Z,0ldaeete,serial-reaction-time,1,R,3,1,17,3241,0,2,409,312,H
2023-04-30T20:31:26Z,0ldaeete,serial-reaction-time,1,P,3,1,18,3241,0,3,434,123,H
2023-04-30T20:31:26Z,0ldaeete,serial-reaction-time,1,R,3,1,19,3241,0,3,276,233,L
2023-04-30T20:31:27Z,0ldaeete,serial-reaction-time,1,P,3,1,20,3241,0,2,325,332,H
2023-04-30T20:31:27Z,0ldaeete,serial-reaction-time,1,R,3,1,21,3241,0,1,383,321,L
2023-04-30T20:31:28Z,0ldaeete,serial-reaction-time,1,P,3,1,22,3241,0,4,314,214,H
2023-04-30T20:31:28Z,0ldaeete,serial-reaction-time,1,R,3,1,23,3241,0,1,342,141,T
2023-04-30T20:31:29Z,0ldaeete,serial-reaction-time,1,P,3,1,24,3241,0,1,356,411,H
2023-04-30T20:31:29Z,0ldaeete,serial-reaction-time,1,R,3,1,25,3241,0,3,349,113,H
