datetime,id,trial_type,correct,p_or_r,block,first_response,trial_number,sequence,is_practice,correct_pos,cumulative_rt,actual_triplet,triplet_type
2023-04-04T14:04:42Z,usnnjdm9,fullscreen,NA,NA,NA,NA,NA,NA,NA,NA,NA,NA,NA
2023-04-04T14:04:48Z,usnnjdm9,html-keyboard-response,NA,NA,NA,NA,NA,NA,NA,NA,NA,NA,NA
2023-04-04T14:04:50Z,usnnjdm9,serial-reaction-time,1,R,1,1,1,1234,0,2,416.3999999985099,2,X
2023-04-04T14:04:50Z,usnnjdm9,serial-reaction-time,1,P,1,1,2,1234,0,1,371.4000000022352,21,X
2023-04-04T14:04:51Z,usnnjdm9,serial-reaction-time,1,R,1,1,3,1234,0,3,347.5999999977648,213,H
2023-04-04T14:04:51Z,usnnjdm9,serial-reaction-time,1,P,1,1,4,1234,0,2,389.6000000014901,132,H
2023-04-04T14:04:52Z,usnnjdm9,serial-reaction-time,1,R,1,1,5,1234,0,3,307.30000000074506,323,T
2023-04-04T14:04:52Z,usnnjdm9,serial-reaction-time,1,P,1,1,6,1234,0,3,305.4000000022352,233,H
2023-04-04T14:04:52Z,usnnjdm9,serial-reaction-time,1,R,1,1,7,1234,0,1,283.4000000022352,331,L
2023-04-04T14:04:53Z,usnnjdm9,serial-reaction-time,1,P,1,1,8,1234,0,4,342.30000000074506,314,H
2023-04-04T14:04:54Z,usnnjdm9,serial-reaction-time,1,R,1,1,9,1234,0,3,384.0999999977648,143,L
2023-04-04T14:04:54Z,usnnjdm9,serial-reaction-time,1,P,1,1,10,1234,0,1,268.1000000014901,431,H
2023-04-04T14:04:54Z,usnnjdm9,serial-reaction-time,1,R,1,1,11,1234,0,1,372.80000000074506,311,L
2023-04-04T14:04:55Z,usnnjdm9,serial-reaction-time,NA,P,1,1,12,1234,0,2,303.1000000014901,112,H
2023-04-04T14:04:55Z,usnnjdm9,serial-reaction-time,1,P,1,0,12,1234,0,2,513.5,112,H
2023-04-04T14:04:56Z,usnnjdm9,serial-reaction-time,1,R,1,1,13,1234,0,3,308.6000000014901,123,L
2023-04-04T14:04:56Z,usnnjdm9,serial-reaction-time,1,P,1,1,14,1234,0,3,312.30000000074506,233,H
2023-04-04T14:04:56Z,usnnjdm9,serial-reaction-time,1,R,1,1,15,1234,0,3,317.5,333,R
2023-04-04T14:04:57Z,usnnjdm9,serial-reaction-time,1,P,1,1,16,1234,0,4,298.4000000022352,334,H
2023-04-04T14:04:57Z,usnnjdm9,serial-reaction-time,1,R,1,1,17,1234,0,2,318,342,L
2023-04-04T14:04:58Z,usnnjdm9,serial-reaction-time,1,P,1,1,18,1234,0,1,347.3999999985099,421,H
2023-04-04T14:04:58Z,usnnjdm9,serial-reaction-time,1,R,1,1,19,1234,0,2,331.5,212,T
2023-04-04T14:04:59Z,usnnjdm9,serial-reaction-time,1,P,1,1,20,1234,0,2,369,122,H
2023-04-04T14:04:59Z,usnnjdm9,serial-reaction-time,1,R,1,1,21,1234,0,2,331.30000000074506,222,R
2023-04-04T14:05:00Z,usnnjdm9,serial-reaction-time,1,P,1,1,22,1234,0,3,402,223,H
2023-04-04T14:05:00Z,usnnjdm9,serial-reaction-time,1,R,1,1,23,1234,0,4,393,234,L
2023-04-04T14:05:01Z,usnnjdm9,serial-reaction-time,1,P,1,1,24,1234,0,4,340,344,H
2023-04-04T14:05:01Z,usnnjdm9,serial-reaction-time,1,R,1,1,25,1234,0,2,279.69999999925494,442,L
2023-04-04T14:05:02Z,usnnjdm9,serial-reaction-time,1,P,1,1,26,1234,0,1,395.1000000014901,421,H
2023-04-04T14:05:02Z,usnnjdm9,serial-reaction-time,1,R,1,1,27,1234,0,4,374.1000000014901,214,L
2023-04-04T14:05:03Z,usnnjdm9,serial-reaction-time,NA,P,1,1,28,1234,0,2,261.9000000022352,142,H
2023-04-04T14:05:03Z,usnnjdm9,serial-reaction-time,1,P,1,0,28,1234,0,2,444.1000000014901,142,H
2023-04-04T14:05:04Z,usnnjdm9,serial-reaction-time,1,R,1,1,29,1234,0,1,527.5,421,H
2023-04-04T14:05:04Z,usnnjdm9,serial-reaction-time,1,P,1,1,30,1234,0,3,300.69999999925494,213,H
2023-04-04T14:05:04Z,usnnjdm9,serial-reaction-time,1,R,1,1,31,1234,0,4,323.80000000074506,134,L
2023-04-04T14:05:05Z,usnnjdm9,serial-reaction-time,1,P,1,1,32,1234,0,4,283.79999999701977,344,H
2023-04-04T14:05:05Z,usnnjdm9,serial-reaction-time,1,R,1,1,33,1234,0,2,315.5,442,L
2023-04-04T14:05:06Z,usnnjdm9,serial-reaction-time,1,P,1,1,34,1234,0,1,393.6000000014901,421,H
2023-04-04T14:05:06Z,usnnjdm9,serial-reaction-time,1,R,1,1,35,1234,0,4,437.3999999985099,214,L
2023-04-04T14:05:07Z,usnnjdm9,serial-reaction-time,1,P,1,1,36,1234,0,2,293,142,H
2023-04-04T14:05:07Z,usnnjdm9,serial-reaction-time,1,R,1,1,37,1234,0,2,387,422,L
2023-04-04T14:05:08Z,usnnjdm9,serial-reaction-time,1,P,1,1,38,1234,0,3,321.70000000298023,223,H
2023-04-04T14:05:08Z,usnnjdm9,serial-reaction-time,1,R,1,1,39,1234,0,3,297.3999999985099,233,H
2023-04-04T14:05:09Z,usnnjdm9,serial-reaction-time,1,P,1,1,40,1234,0,4,351.69999999925494,334,H
2023-04-04T14:05:09Z,usnnjdm9,serial-reaction-time,1,R,1,1,41,1234,0,1,371.79999999701977,341,L
2023-04-04T14:05:10Z,usnnjdm9,serial-reaction-time,1,P,1,1,42,1234,0,1,286.4000000022352,411,H
2023-04-04T14:05:10Z,usnnjdm9,serial-reaction-time,1,R,1,1,43,1234,0,3,323.30000000074506,113,L
2023-04-04T14:05:11Z,usnnjdm9,serial-reaction-time,NA,P,1,1,44,1234,0,2,360.80000000074506,132,H
2023-04-04T14:05:11Z,usnnjdm9,serial-reaction-time,1,P,1,0,44,1234,0,2,383.9000000022352,132,H
2023-04-04T14:05:11Z,usnnjdm9,serial-reaction-time,1,R,1,1,45,1234,0,1,415.1000000014901,321,L
2023-04-04T14:05:12Z,usnnjdm9,serial-reaction-time,1,P,1,1,46,1234,0,3,355.30000000074506,213,H
2023-04-04T14:05:12Z,usnnjdm9,serial-reaction-time,1,R,1,1,47,1234,0,3,296.30000000074506,133,L
2023-04-04T14:05:13Z,usnnjdm9,serial-reaction-time,1,P,1,1,48,1234,0,4,353.30000000074506,334,H
2023-04-04T14:05:13Z,usnnjdm9,serial-reaction-time,NA,R,1,1,49,1234,0,1,270.5,341,L
2023-04-04T14:05:13Z,usnnjdm9,serial-reaction-time,1,R,1,0,49,1234,0,1,510.4000000022352,341,L
2023-04-04T14:05:14Z,usnnjdm9,serial-reaction-time,1,P,1,1,50,1234,0,1,306.19999999925494,411,H
2023-04-04T14:05:14Z,usnnjdm9,serial-reaction-time,1,R,1,1,51,1234,0,4,364.3999999985099,114,L
2023-04-04T14:05:15Z,usnnjdm9,serial-reaction-time,1,P,1,1,52,1234,0,2,328.80000000074506,142,H
2023-04-04T14:05:15Z,usnnjdm9,serial-reaction-time,1,R,1,1,53,1234,0,4,364.6000000014901,424,T
2023-04-04T14:05:16Z,usnnjdm9,serial-reaction-time,NA,P,1,1,54,1234,0,3,334.20000000298023,243,H
2023-04-04T14:05:16Z,usnnjdm9,serial-reaction-time,1,P,1,0,54,1234,0,3,492.6000000014901,243,H
2023-04-04T14:05:16Z,usnnjdm9,serial-reaction-time,1,R,1,1,55,1234,0,4,399.69999999925494,434,T
2023-04-04T14:05:17Z,usnnjdm9,serial-reaction-time,1,P,1,1,56,1234,0,4,295.6000000014901,344,H
2023-04-04T14:05:17Z,usnnjdm9,serial-reaction-time,1,R,1,1,57,1234,0,3,400.1000000014901,443,L
2023-04-04T14:05:18Z,usnnjdm9,serial-reaction-time,1,P,1,1,58,1234,0,1,389.0999999977648,431,H
2023-04-04T14:05:18Z,usnnjdm9,serial-reaction-time,1,R,1,1,59,1234,0,3,321.19999999925494,313,T
2023-04-04T14:05:19Z,usnnjdm9,serial-reaction-time,1,P,1,1,60,1234,0,2,396.69999999925494,132,H
2023-04-04T14:05:19Z,usnnjdm9,serial-reaction-time,1,R,1,1,61,1234,0,1,449.80000000074506,321,L
2023-04-04T14:05:20Z,usnnjdm9,serial-reaction-time,1,P,1,1,62,1234,0,3,323.3999999985099,213,H
2023-04-04T14:05:20Z,usnnjdm9,serial-reaction-time,1,R,1,1,63,1234,0,1,320.80000000074506,131,T
2023-04-04T14:05:21Z,usnnjdm9,serial-reaction-time,1,P,1,1,64,1234,0,4,389.4000000022352,314,H
2023-04-04T14:05:21Z,usnnjdm9,serial-reaction-time,1,R,1,1,65,1234,0,2,439,142,H
2023-04-04T14:05:22Z,usnnjdm9,serial-reaction-time,1,P,1,1,66,1234,0,1,417.69999999925494,421,H
2023-04-04T14:05:22Z,usnnjdm9,serial-reaction-time,NA,R,1,1,67,1234,0,3,301.5,213,H
2023-04-04T14:05:23Z,usnnjdm9,serial-reaction-time,1,R,1,0,67,1234,0,3,511.79999999701977,213,H
2023-04-04T14:05:23Z,usnnjdm9,serial-reaction-time,1,P,1,1,68,1234,0,2,351.5,132,H
2023-04-04T14:05:24Z,usnnjdm9,serial-reaction-time,1,R,1,1,69,1234,0,4,388.80000000074506,324,H
2023-04-04T14:05:24Z,usnnjdm9,serial-reaction-time,1,P,1,1,70,1234,0,3,463.0999999977648,243,H
2023-04-04T14:05:25Z,usnnjdm9,serial-reaction-time,1,R,1,1,71,1234,0,4,383.9000000022352,434,T
2023-04-04T14:05:25Z,usnnjdm9,serial-reaction-time,1,P,1,1,72,1234,0,4,330.3999999985099,344,H
2023-04-04T14:05:26Z,usnnjdm9,serial-reaction-time,1,R,1,1,73,1234,0,3,344.8999999985099,443,L
2023-04-04T14:05:26Z,usnnjdm9,serial-reaction-time,1,P,1,1,74,1234,0,1,433.8999999985099,431,H
2023-04-04T14:05:27Z,usnnjdm9,serial-reaction-time,NA,R,1,1,75,1234,0,4,301.5,314,H
2023-04-04T14:05:27Z,usnnjdm9,serial-reaction-time,1,R,1,0,75,1234,0,4,623,314,H
2023-04-04T14:05:27Z,usnnjdm9,serial-reaction-time,1,P,1,1,76,1234,0,2,358.4000000022352,142,H
2023-04-04T14:05:28Z,usnnjdm9,serial-reaction-time,NA,R,1,1,77,1234,0,3,334.1000000014901,423,L
2023-04-04T14:05:28Z,usnnjdm9,serial-reaction-time,1,R,1,0,77,1234,0,3,564.2000000029802,423,L
2023-04-04T14:05:29Z,usnnjdm9,serial-reaction-time,1,P,1,1,78,1234,0,3,347.19999999925494,233,H
2023-04-04T14:05:29Z,usnnjdm9,serial-reaction-time,1,R,1,1,79,1234,0,1,325.8999999985099,331,L
2023-04-04T14:05:30Z,usnnjdm9,serial-reaction-time,1,P,1,1,80,1234,0,4,417.0999999977648,314,H
2023-04-04T14:05:35Z,usnnjdm9,html-keyboard-response,NA,NA,NA,NA,NA,NA,NA,NA,NA,NA,NA
2023-04-04T14:05:42Z,usnnjdm9,html-keyboard-response,NA,NA,NA,NA,NA,NA,NA,NA,NA,NA,NA
2023-04-04T14:05:43Z,usnnjdm9,serial-reaction-time,1,R,2,1,1,1234,0,4,344.69999999925494,4,X
2023-04-04T14:05:43Z,usnnjdm9,serial-reaction-time,1,P,2,1,2,1234,0,1,337.19999999925494,41,X
2023-04-04T14:05:44Z,usnnjdm9,serial-reaction-time,1,R,2,1,3,1234,0,3,274.30000000074506,413,L
2023-04-04T14:05:44Z,usnnjdm9,serial-reaction-time,NA,P,2,1,4,1234,0,2,251.30000000074503,132,H
2023-04-04T14:05:44Z,usnnjdm9,serial-reaction-time,1,P,2,0,4,1234,0,2,477.5,132,H
2023-04-04T14:05:45Z,usnnjdm9,serial-reaction-time,1,R,2,1,5,1234,0,4,324.3999999985099,324,H
2023-04-04T14:05:45Z,usnnjdm9,serial-reaction-time,1,P,2,1,6,1234,0,3,321.19999999925494,243,H
2023-04-04T14:05:46Z,usnnjdm9,serial-reaction-time,1,R,2,1,7,1234,0,4,359.70000000298023,434,T
2023-04-04T14:05:46Z,usnnjdm9,serial-reaction-time,1,P,2,1,8,1234,0,4,332.29999999701977,344,H
2023-04-04T14:05:47Z,usnnjdm9,serial-reaction-time,1,R,2,1,9,1234,0,2,320.5,442,L
2023-04-04T14:05:47Z,usnnjdm9,serial-reaction-time,1,P,2,1,10,1234,0,1,355.79999999701977,421,H
2023-04-04T14:05:48Z,usnnjdm9,serial-reaction-time,1,R,2,1,11,1234,0,4,308,214,L
2023-04-04T14:05:48Z,usnnjdm9,serial-reaction-time,1,P,2,1,12,1234,0,2,369.69999999925494,142,H
2023-04-04T14:05:49Z,usnnjdm9,serial-reaction-time,1,R,2,1,13,1234,0,4,271.30000000074506,424,T
2023-04-04T14:05:49Z,usnnjdm9,serial-reaction-time,1,P,2,1,14,1234,0,3,362.70000000298023,243,H
2023-04-04T14:05:50Z,usnnjdm9,serial-reaction-time,1,R,2,1,15,1234,0,1,415.8999999985099,431,H
2023-04-04T14:05:50Z,usnnjdm9,serial-reaction-time,1,P,2,1,16,1234,0,4,293.30000000074506,314,H
2023-04-04T14:05:51Z,usnnjdm9,serial-reaction-time,1,R,2,1,17,1234,0,3,351.5999999977648,143,L
2023-04-04T14:05:51Z,usnnjdm9,serial-reaction-time,1,P,2,1,18,1234,0,1,304.80000000074506,431,H
2023-04-04T14:05:51Z,usnnjdm9,serial-reaction-time,1,R,2,1,19,1234,0,1,323.80000000074506,311,L
2023-04-04T14:05:52Z,usnnjdm9,serial-reaction-time,1,P,2,1,20,1234,0,2,410.1000000014901,112,H
2023-04-04T14:05:52Z,usnnjdm9,serial-reaction-time,NA,R,2,1,21,1234,0,3,297.6000000014901,123,L
2023-04-04T14:05:53Z,usnnjdm9,serial-reaction-time,1,R,2,0,21,1234,0,3,538.8000000007451,123,L
2023-04-04T14:05:53Z,usnnjdm9,serial-reaction-time,1,P,2,1,22,1234,0,3,304.6000000014901,233,H
2023-04-04T14:05:54Z,usnnjdm9,serial-reaction-time,1,R,2,1,23,1234,0,3,328.20000000298023,333,R
2023-04-04T14:05:54Z,usnnjdm9,serial-reaction-time,1,P,2,1,24,1234,0,4,369.30000000074506,334,H
2023-04-04T14:05:55Z,usnnjdm9,serial-reaction-time,1,R,2,1,25,1234,0,2,259.30000000074506,342,L
2023-04-04T14:05:55Z,usnnjdm9,serial-reaction-time,1,P,2,1,26,1234,0,1,365.79999999701977,421,H
2023-04-04T14:05:55Z,usnnjdm9,serial-reaction-time,1,R,2,1,27,1234,0,1,283,211,L
2023-04-04T14:05:56Z,usnnjdm9,serial-reaction-time,1,P,2,1,28,1234,0,2,338.6000000014901,112,H
2023-04-04T14:05:56Z,usnnjdm9,serial-reaction-time,1,R,2,1,29,1234,0,3,370.19999999925494,123,L
2023-04-04T14:05:57Z,usnnjdm9,serial-reaction-time,1,P,2,1,30,1234,0,3,288.80000000074506,233,H
2023-04-04T14:05:57Z,usnnjdm9,serial-reaction-time,1,R,2,1,31,1234,0,4,347.4000000022352,334,H
2023-04-04T14:05:58Z,usnnjdm9,serial-reaction-time,1,P,2,1,32,1234,0,4,304.5,344,H
2023-04-04T14:05:58Z,usnnjdm9,serial-reaction-time,1,R,2,1,33,1234,0,2,321.8999999985099,442,L
2023-04-04T14:05:59Z,usnnjdm9,serial-reaction-time,1,P,2,1,34,1234,0,1,387.6000000014901,421,H
2023-04-04T14:05:59Z,usnnjdm9,serial-reaction-time,1,R,2,1,35,1234,0,3,287.6000000014901,213,H
2023-04-04T14:06:00Z,usnnjdm9,serial-reaction-time,1,P,2,1,36,1234,0,2,403.1000000014901,132,H
2023-04-04T14:06:00Z,usnnjdm9,serial-reaction-time,1,R,2,1,37,1234,0,1,310.5999999977648,321,L
2023-04-04T14:06:01Z,usnnjdm9,serial-reaction-time,1,P,2,1,38,1234,0,3,398.9000000022352,213,H
2023-04-04T14:06:01Z,usnnjdm9,serial-reaction-time,NA,R,2,1,39,1234,0,1,251.19999999925497,131,T
2023-04-04T14:06:01Z,usnnjdm9,serial-reaction-time,1,R,2,0,39,1234,0,1,494.19999999925494,131,T
2023-04-04T14:06:02Z,usnnjdm9,serial-reaction-time,1,P,2,1,40,1234,0,4,328.3999999985099,314,H
2023-04-04T14:06:02Z,usnnjdm9,serial-reaction-time,1,R,2,1,41,1234,0,2,403.80000000074506,142,H
2023-04-04T14:06:03Z,usnnjdm9,serial-reaction-time,1,P,2,1,42,1234,0,1,313.19999999925494,421,H
2023-04-04T14:06:03Z,usnnjdm9,serial-reaction-time,1,R,2,1,43,1234,0,1,324.4000000022352,211,L
2023-04-04T14:06:04Z,usnnjdm9,serial-reaction-time,1,P,2,1,44,1234,0,2,332.5999999977648,112,H
2023-04-04T14:06:04Z,usnnjdm9,serial-reaction-time,1,R,2,1,45,1234,0,1,330.80000000074506,121,T
2023-04-04T14:06:05Z,usnnjdm9,serial-reaction-time,1,P,2,1,46,1234,0,3,374.5,213,H
2023-04-04T14:06:05Z,usnnjdm9,serial-reaction-time,NA,R,2,1,47,1234,0,2,338.69999999925494,132,H
2023-04-04T14:06:05Z,usnnjdm9,serial-reaction-time,1,R,2,0,47,1234,0,2,408.5999999977648,132,H
2023-04-04T14:06:06Z,usnnjdm9,serial-reaction-time,1,P,2,1,48,1234,0,4,388.6000000014901,324,H
2023-04-04T14:06:06Z,usnnjdm9,serial-reaction-time,1,R,2,1,49,1234,0,1,276.19999999925494,241,L
2023-04-04T14:06:07Z,usnnjdm9,serial-reaction-time,1,P,2,1,50,1234,0,1,329.69999999925494,411,H
2023-04-04T14:06:07Z,usnnjdm9,serial-reaction-time,1,R,2,1,51,1234,0,4,373.19999999925494,114,L
2023-04-04T14:06:08Z,usnnjdm9,serial-reaction-time,1,P,2,1,52,1234,0,2,346.6000000014901,142,H
2023-04-04T14:06:08Z,usnnjdm9,serial-reaction-time,1,R,2,1,53,1234,0,4,375.19999999925494,424,T
2023-04-04T14:06:09Z,usnnjdm9,serial-reaction-time,1,P,2,1,54,1234,0,3,408.4000000022352,243,H
2023-04-04T14:06:09Z,usnnjdm9,serial-reaction-time,1,R,2,1,55,1234,0,2,367.19999999925494,432,L
2023-04-04T14:06:10Z,usnnjdm9,serial-reaction-time,1,P,2,1,56,1234,0,4,304.79999999701977,324,H
2023-04-04T14:06:10Z,usnnjdm9,serial-reaction-time,1,R,2,1,57,1234,0,2,303.80000000074506,242,T
2023-04-04T14:06:10Z,usnnjdm9,serial-reaction-time,1,P,2,1,58,1234,0,1,390.30000000074506,421,H
2023-04-04T14:06:11Z,usnnjdm9,serial-reaction-time,1,R,2,1,59,1234,0,3,378.1000000014901,213,H
2023-04-04T14:06:11Z,usnnjdm9,serial-reaction-time,1,P,2,1,60,1234,0,2,262.30000000074506,132,H
2023-04-04T14:06:12Z,usnnjdm9,serial-reaction-time,1,R,2,1,61,1234,0,4,332.5,324,H
2023-04-04T14:06:12Z,usnnjdm9,serial-reaction-time,1,P,2,1,62,1234,0,3,318.20000000298023,243,H
2023-04-04T14:06:13Z,usnnjdm9,serial-reaction-time,1,R,2,1,63,1234,0,2,289.5,432,L
2023-04-04T14:06:13Z,usnnjdm9,serial-reaction-time,1,P,2,1,64,1234,0,4,266.79999999701977,324,H
2023-04-04T14:06:14Z,usnnjdm9,serial-reaction-time,1,R,2,1,65,1234,0,3,308.30000000074506,243,H
2023-04-04T14:06:14Z,usnnjdm9,serial-reaction-time,1,P,2,1,66,1234,0,1,318.80000000074506,431,H
2023-04-04T14:06:15Z,usnnjdm9,serial-reaction-time,1,R,2,1,67,1234,0,2,382.80000000074506,312,L
2023-04-04T14:06:15Z,usnnjdm9,serial-reaction-time,1,P,2,1,68,1234,0,2,347.80000000074506,122,H
2023-04-04T14:06:15Z,usnnjdm9,serial-reaction-time,1,R,2,1,69,1234,0,2,300.8999999985099,222,R
2023-04-04T14:06:16Z,usnnjdm9,serial-reaction-time,1,P,2,1,70,1234,0,3,400.8999999985099,223,H
2023-04-04T14:06:17Z,usnnjdm9,serial-reaction-time,1,R,2,1,71,1234,0,2,382.79999999701977,232,T
2023-04-04T14:06:17Z,usnnjdm9,serial-reaction-time,1,P,2,1,72,1234,0,4,354.6000000014901,324,H
2023-04-04T14:06:17Z,usnnjdm9,serial-reaction-time,1,R,2,1,73,1234,0,4,324.1000000014901,244,L
2023-04-04T14:06:18Z,usnnjdm9,serial-reaction-time,1,P,2,1,74,1234,0,1,354.1000000014901,441,H
2023-04-04T14:06:18Z,usnnjdm9,serial-reaction-time,NA,R,2,1,75,1234,0,4,275,414,T
2023-04-04T14:06:19Z,usnnjdm9,serial-reaction-time,1,R,2,0,75,1234,0,4,579.5999999977648,414,T
2023-04-04T14:06:19Z,usnnjdm9,serial-reaction-time,NA,P,2,1,76,1234,0,2,219.10000000149012,142,H
2023-04-04T14:06:19Z,usnnjdm9,serial-reaction-time,1,P,2,0,76,1234,0,2,509.5000000037253,142,H
2023-04-04T14:06:20Z,usnnjdm9,serial-reaction-time,1,R,2,1,77,1234,0,1,419.30000000074506,421,H
2023-04-04T14:06:20Z,usnnjdm9,serial-reaction-time,1,P,2,1,78,1234,0,3,396.5999999977648,213,H
2023-04-04T14:06:21Z,usnnjdm9,serial-reaction-time,1,R,2,1,79,1234,0,3,343.3999999985099,133,L
2023-04-04T14:06:21Z,usnnjdm9,serial-reaction-time,1,P,2,1,80,1234,0,4,339.1000000014901,334,H
2023-04-04T14:06:26Z,usnnjdm9,html-keyboard-response,NA,NA,NA,NA,NA,NA,NA,NA,NA,NA,NA
2023-04-04T14:06:37Z,usnnjdm9,html-keyboard-response,NA,NA,NA,NA,NA,NA,NA,NA,NA,NA,NA
2023-04-04T14:06:38Z,usnnjdm9,serial-reaction-time,1,R,3,1,1,1234,0,1,333.8999999985099,1,X
2023-04-04T14:06:39Z,usnnjdm9,serial-reaction-time,1,P,3,1,2,1234,0,1,265.3999999985099,11,X
2023-04-04T14:06:39Z,usnnjdm9,serial-reaction-time,NA,R,3,1,3,1234,0,2,353,112,H
2023-04-04T14:06:40Z,usnnjdm9,serial-reaction-time,1,R,3,0,3,1234,0,2,647.0999999977648,112,H
2023-04-04T14:06:40Z,usnnjdm9,serial-reaction-time,1,P,3,1,4,1234,0,2,269.69999999925494,122,H
2023-04-04T14:06:41Z,usnnjdm9,serial-reaction-time,1,R,3,1,5,1234,0,1,363.3999999985099,221,L
2023-04-04T14:06:41Z,usnnjdm9,serial-reaction-time,1,P,3,1,6,1234,0,3,432.69999999925494,213,H
2023-04-04T14:06:42Z,usnnjdm9,serial-reaction-time,1,R,3,1,7,1234,0,1,362.3999999985099,131,T
2023-04-04T14:06:42Z,usnnjdm9,serial-reaction-time,1,P,3,1,8,1234,0,4,335.69999999925494,314,H
2023-04-04T14:06:43Z,usnnjdm9,serial-reaction-time,NA,R,3,1,9,1234,0,3,288.30000000074506,143,L
2023-04-04T14:06:43Z,usnnjdm9,serial-reaction-time,1,R,3,0,9,1234,0,3,595.5999999977648,143,L
2023-04-04T14:06:43Z,usnnjdm9,serial-reaction-time,1,P,3,1,10,1234,0,1,314.19999999925494,431,H
2023-04-04T14:06:44Z,usnnjdm9,serial-reaction-time,1,R,3,1,11,1234,0,4,354.0999999977648,314,H
2023-04-04T14:06:44Z,usnnjdm9,serial-reaction-time,1,P,3,1,12,1234,0,2,349.5,142,H
2023-04-04T14:06:45Z,usnnjdm9,serial-reaction-time,1,R,3,1,13,1234,0,1,294,421,H
2023-04-04T14:06:45Z,usnnjdm9,serial-reaction-time,1,P,3,1,14,1234,0,3,345.70000000298023,213,H
2023-04-04T14:06:46Z,usnnjdm9,serial-reaction-time,1,R,3,1,15,1234,0,2,335.30000000074506,132,H
2023-04-04T14:06:46Z,usnnjdm9,serial-reaction-time,1,P,3,1,16,1234,0,4,393.3999999985099,324,H
2023-04-04T14:06:47Z,usnnjdm9,serial-reaction-time,1,R,3,1,17,1234,0,3,313.19999999925494,243,H
2023-04-04T14:06:47Z,usnnjdm9,serial-reaction-time,NA,P,3,1,18,1234,0,1,291.5,431,H
2023-04-04T14:06:47Z,usnnjdm9,serial-reaction-time,1,P,3,0,18,1234,0,1,519.3999999985099,431,H
2023-04-04T14:06:48Z,usnnjdm9,serial-reaction-time,1,R,3,1,19,1234,0,4,293.80000000074506,314,H
2023-04-04T14:06:48Z,usnnjdm9,serial-reaction-time,1,P,3,1,20,1234,0,2,363.30000000074506,142,H
2023-04-04T14:06:49Z,usnnjdm9,serial-reaction-time,1,R,3,1,21,1234,0,4,297,424,T
2023-04-04T14:06:49Z,usnnjdm9,serial-reaction-time,1,P,3,1,22,1234,0,3,430.5,243,H
2023-04-04T14:06:50Z,usnnjdm9,serial-reaction-time,1,R,3,1,23,1234,0,3,308.30000000074506,433,L
2023-04-04T14:06:50Z,usnnjdm9,serial-reaction-time,1,P,3,1,24,1234,0,4,374,334,H
2023-04-04T14:06:51Z,usnnjdm9,serial-reaction-time,1,R,3,1,25,1234,0,2,338.6000000014901,342,L
2023-04-04T14:06:51Z,usnnjdm9,serial-reaction-time,1,P,3,1,26,1234,0,1,327,421,H
2023-04-04T14:06:52Z,usnnjdm9,serial-reaction-time,1,R,3,1,27,1234,0,2,328.5,212,T
2023-04-04T14:06:52Z,usnnjdm9,serial-reaction-time,1,P,3,1,28,1234,0,2,315,122,H
2023-04-04T14:06:52Z,usnnjdm9,serial-reaction-time,1,R,3,1,29,1234,0,1,303,221,L
2023-04-04T14:06:53Z,usnnjdm9,serial-reaction-time,1,P,3,1,30,1234,0,3,376.80000000074506,213,H
2023-04-04T14:06:53Z,usnnjdm9,serial-reaction-time,1,R,3,1,31,1234,0,3,294.69999999925494,133,L
2023-04-04T14:06:54Z,usnnjdm9,serial-reaction-time,1,P,3,1,32,1234,0,4,314.6000000014901,334,H
2023-04-04T14:06:54Z,usnnjdm9,serial-reaction-time,1,R,3,1,33,1234,0,2,278.80000000074506,342,L
2023-04-04T14:06:55Z,usnnjdm9,serial-reaction-time,1,P,3,1,34,1234,0,1,343.8999999985099,421,H
2023-04-04T14:06:55Z,usnnjdm9,serial-reaction-time,1,R,3,1,35,1234,0,4,356.19999999925494,214,L
2023-04-04T14:06:56Z,usnnjdm9,serial-reaction-time,NA,P,3,1,36,1234,0,2,315.80000000074506,142,H
2023-04-04T14:06:56Z,usnnjdm9,serial-reaction-time,1,P,3,0,36,1234,0,2,636.4000000022352,142,H
2023-04-04T14:06:56Z,usnnjdm9,serial-reaction-time,1,R,3,1,37,1234,0,2,362.5999999977648,422,L
2023-04-04T14:06:57Z,usnnjdm9,serial-reaction-time,1,P,3,1,38,1234,0,3,373.9000000022352,223,H
2023-04-04T14:06:57Z,usnnjdm9,serial-reaction-time,1,R,3,1,39,1234,0,4,354.6000000014901,234,L
2023-04-04T14:06:58Z,usnnjdm9,serial-reaction-time,1,P,3,1,40,1234,0,4,342.4000000022352,344,H
2023-04-04T14:06:58Z,usnnjdm9,serial-reaction-time,1,R,3,1,41,1234,0,3,369.1000000014901,443,L
2023-04-04T14:06:59Z,usnnjdm9,serial-reaction-time,1,P,3,1,42,1234,0,1,379.3999999985099,431,H
2023-04-04T14:07:00Z,usnnjdm9,serial-reaction-time,NA,R,3,1,43,1234,0,3,451.80000000074506,313,T
2023-04-04T14:07:00Z,usnnjdm9,serial-reaction-time,1,R,3,0,43,1234,0,3,805.5999999977648,313,T
2023-04-04T14:07:00Z,usnnjdm9,serial-reaction-time,1,P,3,1,44,1234,0,2,355.69999999925494,132,H
2023-04-04T14:07:01Z,usnnjdm9,serial-reaction-time,1,R,3,1,45,1234,0,2,354.1000000014901,322,L
2023-04-04T14:07:01Z,usnnjdm9,serial-reaction-time,1,P,3,1,46,1234,0,3,343.4000000022352,223,H
2023-04-04T14:07:02Z,usnnjdm9,serial-reaction-time,NA,R,3,1,47,1234,0,1,333.1000000014901,231,L
2023-04-04T14:07:02Z,usnnjdm9,serial-reaction-time,1,R,3,0,47,1234,0,1,583.4000000022352,231,L
2023-04-04T14:07:03Z,usnnjdm9,serial-reaction-time,1,P,3,1,48,1234,0,4,348.69999999925494,314,H
2023-04-04T14:07:03Z,usnnjdm9,serial-reaction-time,1,R,3,1,49,1234,0,4,318.3999999985099,144,L
2023-04-04T14:07:04Z,usnnjdm9,serial-reaction-time,1,P,3,1,50,1234,0,1,353.9000000022352,441,H
2023-04-04T14:07:04Z,usnnjdm9,serial-reaction-time,NA,R,3,1,51,1234,0,2,334.6000000014901,412,L
2023-04-04T14:07:04Z,usnnjdm9,serial-reaction-time,1,R,3,0,51,1234,0,2,477.6000000014901,412,L
2023-04-04T14:07:05Z,usnnjdm9,serial-reaction-time,1,P,3,1,52,1234,0,2,405,122,H
2023-04-04T14:07:05Z,usnnjdm9,serial-reaction-time,1,R,3,1,53,1234,0,3,430,223,H
2023-04-04T14:07:06Z,usnnjdm9,serial-reaction-time,1,P,3,1,54,1234,0,3,347.3999999985099,233,H
2023-04-04T14:07:06Z,usnnjdm9,serial-reaction-time,1,R,3,1,55,1234,0,2,384.3999999985099,332,L
2023-04-04T14:07:07Z,usnnjdm9,serial-reaction-time,1,P,3,1,56,1234,0,4,407.5,324,H
2023-04-04T14:07:07Z,usnnjdm9,serial-reaction-time,1,R,3,1,57,1234,0,4,333.70000000298023,244,L
2023-04-04T14:07:08Z,usnnjdm9,serial-reaction-time,1,P,3,1,58,1234,0,1,289.19999999925494,441,H
2023-04-04T14:07:08Z,usnnjdm9,serial-reaction-time,1,R,3,1,59,1234,0,2,283.1000000014901,412,L
2023-04-04T14:07:09Z,usnnjdm9,serial-reaction-time,1,P,3,1,60,1234,0,2,310.20000000298023,122,H
2023-04-04T14:07:09Z,usnnjdm9,serial-reaction-time,1,R,3,1,61,1234,0,3,312.5,223,H
2023-04-04T14:07:09Z,usnnjdm9,serial-reaction-time,1,P,3,1,62,1234,0,3,309.70000000298023,233,H
2023-04-04T14:07:10Z,usnnjdm9,serial-reaction-time,1,R,3,1,63,1234,0,3,380.19999999925494,333,R
2023-04-04T14:07:10Z,usnnjdm9,serial-reaction-time,1,P,3,1,64,1234,0,4,337.19999999925494,334,H
2023-04-04T14:07:11Z,usnnjdm9,serial-reaction-time,1,R,3,1,65,1234,0,1,381.5999999977648,341,L
2023-04-04T14:07:11Z,usnnjdm9,serial-reaction-time,1,P,3,1,66,1234,0,1,339.6000000014901,411,H
2023-04-04T14:07:12Z,usnnjdm9,serial-reaction-time,1,R,3,1,67,1234,0,3,318.80000000074506,113,L
2023-04-04T14:07:12Z,usnnjdm9,serial-reaction-time,1,P,3,1,68,1234,0,2,437.3999999985099,132,H
2023-04-04T14:07:13Z,usnnjdm9,serial-reaction-time,1,R,3,1,69,1234,0,1,340.0999999977648,321,L
2023-04-04T14:07:13Z,usnnjdm9,serial-reaction-time,1,P,3,1,70,1234,0,3,417.8999999985099,213,H
2023-04-04T14:07:14Z,usnnjdm9,serial-reaction-time,1,R,3,1,71,1234,0,1,393.9000000022352,131,T
2023-04-04T14:07:14Z,usnnjdm9,serial-reaction-time,1,P,3,1,72,1234,0,4,339.69999999925494,314,H
2023-04-04T14:07:15Z,usnnjdm9,serial-reaction-time,1,R,3,1,73,1234,0,3,505.19999999925494,143,L
2023-04-04T14:07:16Z,usnnjdm9,serial-reaction-time,1,P,3,1,74,1234,0,1,345.30000000074506,431,H
2023-04-04T14:07:16Z,usnnjdm9,serial-reaction-time,NA,R,3,1,75,1234,0,1,327.29999999701977,311,L
2023-04-04T14:07:16Z,usnnjdm9,serial-reaction-time,1,R,3,0,75,1234,0,1,668.0999999977648,311,L
2023-04-04T14:07:17Z,usnnjdm9,serial-reaction-time,1,P,3,1,76,1234,0,2,372,112,H
2023-04-04T14:07:17Z,usnnjdm9,serial-reaction-time,1,R,3,1,77,1234,0,2,376.69999999925494,122,H
2023-04-04T14:07:18Z,usnnjdm9,serial-reaction-time,1,P,3,1,78,1234,0,3,369.80000000074506,223,H
2023-04-04T14:07:18Z,usnnjdm9,serial-reaction-time,NA,R,3,1,79,1234,0,2,347.30000000074506,232,T
2023-04-04T14:07:19Z,usnnjdm9,serial-reaction-time,1,R,3,0,79,1234,0,2,482.5,232,T
2023-04-04T14:07:19Z,usnnjdm9,serial-reaction-time,1,P,3,1,80,1234,0,4,428.5,324,H
2023-04-04T14:07:24Z,usnnjdm9,html-keyboard-response,NA,NA,NA,NA,NA,NA,NA,NA,NA,NA,NA
2023-04-04T14:07:28Z,usnnjdm9,html-keyboard-response,NA,NA,NA,NA,NA,NA,NA,NA,NA,NA,NA
2023-04-04T14:07:30Z,usnnjdm9,serial-reaction-time,1,R,4,1,1,1234,0,2,382.69999999925494,2,X
2023-04-04T14:07:30Z,usnnjdm9,serial-reaction-time,1,P,4,1,2,1234,0,1,361.8999999985099,21,X
2023-04-04T14:07:31Z,usnnjdm9,serial-reaction-time,1,R,4,1,3,1234,0,2,381.6000000014901,212,T
2023-04-04T14:07:31Z,usnnjdm9,serial-reaction-time,1,P,4,1,4,1234,0,2,376.79999999701977,122,H
2023-04-04T14:07:32Z,usnnjdm9,serial-reaction-time,1,R,4,1,5,1234,0,3,373.1000000014901,223,H
2023-04-04T14:07:32Z,usnnjdm9,serial-reaction-time,1,P,4,1,6,1234,0,3,294.19999999925494,233,H
2023-04-04T14:07:33Z,usnnjdm9,serial-reaction-time,1,R,4,1,7,1234,0,3,317.20000000298023,333,R
2023-04-04T14:07:33Z,usnnjdm9,serial-reaction-time,1,P,4,1,8,1234,0,4,322.8999999985099,334,H
2023-04-04T14:07:33Z,usnnjdm9,serial-reaction-time,1,R,4,1,9,1234,0,2,333.5999999977648,342,L
2023-04-04T14:07:34Z,usnnjdm9,serial-reaction-time,1,P,4,1,10,1234,0,1,418.29999999701977,421,H
2023-04-04T14:07:35Z,usnnjdm9,serial-reaction-time,1,R,4,1,11,1234,0,3,423,213,H
2023-04-04T14:07:35Z,usnnjdm9,serial-reaction-time,NA,P,4,1,12,1234,0,2,337,132,H
2023-04-04T14:07:35Z,usnnjdm9,serial-reaction-time,1,P,4,0,12,1234,0,2,640.3000000007451,132,H
2023-04-04T14:07:36Z,usnnjdm9,serial-reaction-time,1,R,4,1,13,1234,0,2,265.6000000014901,322,L
2023-04-04T14:07:36Z,usnnjdm9,serial-reaction-time,1,P,4,1,14,1234,0,3,342.3999999985099,223,H
2023-04-04T14:07:37Z,usnnjdm9,serial-reaction-time,1,R,4,1,15,1234,0,2,431,232,T
2023-04-04T14:07:37Z,usnnjdm9,serial-reaction-time,1,P,4,1,16,1234,0,4,327.1000000014901,324,H
2023-04-04T14:07:38Z,usnnjdm9,serial-reaction-time,1,R,4,1,17,1234,0,4,297.80000000074506,244,L
2023-04-04T14:07:38Z,usnnjdm9,serial-reaction-time,1,P,4,1,18,1234,0,1,318.5,441,H
2023-04-04T14:07:39Z,usnnjdm9,serial-reaction-time,NA,R,4,1,19,1234,0,4,317.80000000074506,414,T
2023-04-04T14:07:39Z,usnnjdm9,serial-reaction-time,1,R,4,0,19,1234,0,4,662.9000000022352,414,T
2023-04-04T14:07:39Z,usnnjdm9,serial-reaction-time,1,P,4,1,20,1234,0,2,353,142,H
2023-04-04T14:07:40Z,usnnjdm9,serial-reaction-time,1,R,4,1,21,1234,0,2,320.5999999977648,422,L
2023-04-04T14:07:40Z,usnnjdm9,serial-reaction-time,1,P,4,1,22,1234,0,3,437.3999999985099,223,H
2023-04-04T14:07:41Z,usnnjdm9,serial-reaction-time,1,R,4,1,23,1234,0,1,427.9000000022352,231,L
2023-04-04T14:07:42Z,usnnjdm9,serial-reaction-time,1,P,4,1,24,1234,0,4,381.69999999925494,314,H
2023-04-04T14:07:42Z,usnnjdm9,serial-reaction-time,1,R,4,1,25,1234,0,1,310.19999999925494,141,T
2023-04-04T14:07:42Z,usnnjdm9,serial-reaction-time,1,P,4,1,26,1234,0,1,323,411,H
2023-04-04T14:07:43Z,usnnjdm9,serial-reaction-time,NA,R,4,1,27,1234,0,3,282.30000000074506,113,L
2023-04-04T14:07:43Z,usnnjdm9,serial-reaction-time,1,R,4,0,27,1234,0,3,503,113,L
2023-04-04T14:07:44Z,usnnjdm9,serial-reaction-time,1,P,4,1,28,1234,0,2,376.6000000014901,132,H
2023-04-04T14:07:44Z,usnnjdm9,serial-reaction-time,1,R,4,1,29,1234,0,4,392.3999999985099,324,H
2023-04-04T14:07:45Z,usnnjdm9,serial-reaction-time,1,P,4,1,30,1234,0,3,401.80000000074506,243,H
2023-04-04T14:07:45Z,usnnjdm9,serial-reaction-time,1,R,4,1,31,1234,0,4,387.80000000074506,434,T
2023-04-04T14:07:46Z,usnnjdm9,serial-reaction-time,1,P,4,1,32,1234,0,4,377.3999999985099,344,H
2023-04-04T14:07:46Z,usnnjdm9,serial-reaction-time,1,R,4,1,33,1234,0,4,317.8999999985099,444,R
2023-04-04T14:07:47Z,usnnjdm9,serial-reaction-time,1,P,4,1,34,1234,0,1,347.69999999925494,441,H
2023-04-04T14:07:47Z,usnnjdm9,serial-reaction-time,1,R,4,1,35,1234,0,3,408.19999999925494,413,L
2023-04-04T14:07:48Z,usnnjdm9,serial-reaction-time,1,P,4,1,36,1234,0,2,387.1000000014901,132,H
2023-04-04T14:07:48Z,usnnjdm9,serial-reaction-time,1,R,4,1,37,1234,0,4,369.19999999925494,324,H
2023-04-04T14:07:49Z,usnnjdm9,serial-reaction-time,NA,P,4,1,38,1234,0,3,352.6000000014901,243,H
2023-04-04T14:07:49Z,usnnjdm9,serial-reaction-time,1,P,4,0,38,1234,0,3,659.4000000022352,243,H
2023-04-04T14:07:50Z,usnnjdm9,serial-reaction-time,1,R,4,1,39,1234,0,2,345.80000000074506,432,L
2023-04-04T14:07:50Z,usnnjdm9,serial-reaction-time,1,P,4,1,40,1234,0,4,343.19999999925494,324,H
2023-04-04T14:07:51Z,usnnjdm9,serial-reaction-time,1,R,4,1,41,1234,0,3,358.3999999985099,243,H
2023-04-04T14:07:51Z,usnnjdm9,serial-reaction-time,1,P,4,1,42,1234,0,1,381.9000000022352,431,H
2023-04-04T14:07:51Z,usnnjdm9,serial-reaction-time,1,R,4,1,43,1234,0,4,351.80000000074506,314,H
2023-04-04T14:07:52Z,usnnjdm9,serial-reaction-time,1,P,4,1,44,1234,0,2,309.29999999701977,142,H
2023-04-04T14:07:52Z,usnnjdm9,serial-reaction-time,1,R,4,1,45,1234,0,2,340.1000000014901,422,L
2023-04-04T14:07:53Z,usnnjdm9,serial-reaction-time,NA,P,4,1,46,1234,0,3,327.19999999925494,223,H
2023-04-04T14:07:53Z,usnnjdm9,serial-reaction-time,1,P,4,0,46,1234,0,3,545.3999999985099,223,H
2023-04-04T14:07:54Z,usnnjdm9,serial-reaction-time,1,R,4,1,47,1234,0,1,378.6000000014901,231,L
2023-04-04T14:07:54Z,usnnjdm9,serial-reaction-time,1,P,4,1,48,1234,0,4,394.69999999925494,314,H
2023-04-04T14:07:55Z,usnnjdm9,serial-reaction-time,1,R,4,1,49,1234,0,3,416.6000000014901,143,L
2023-04-04T14:07:55Z,usnnjdm9,serial-reaction-time,1,P,4,1,50,1234,0,1,391.9000000022352,431,H
2023-04-04T14:07:56Z,usnnjdm9,serial-reaction-time,1,R,4,1,51,1234,0,4,345.1000000014901,314,H
2023-04-04T14:07:56Z,usnnjdm9,serial-reaction-time,1,P,4,1,52,1234,0,2,453.3999999985099,142,H
2023-04-04T14:07:57Z,usnnjdm9,serial-reaction-time,1,R,4,1,53,1234,0,3,357.9000000022352,423,L
2023-04-04T14:07:57Z,usnnjdm9,serial-reaction-time,1,P,4,1,54,1234,0,3,335.80000000074506,233,H
2023-04-04T14:07:58Z,usnnjdm9,serial-reaction-time,1,R,4,1,55,1234,0,3,325.69999999925494,333,R
2023-04-04T14:07:58Z,usnnjdm9,serial-reaction-time,1,P,4,1,56,1234,0,4,391.1000000014901,334,H
2023-04-04T14:07:59Z,usnnjdm9,serial-reaction-time,1,R,4,1,57,1234,0,2,321.8999999985099,342,L
2023-04-04T14:07:59Z,usnnjdm9,serial-reaction-time,1,P,4,1,58,1234,0,1,295.5,421,H
2023-04-04T14:08:00Z,usnnjdm9,serial-reaction-time,NA,R,4,1,59,1234,0,3,347.0999999977648,213,H
2023-04-04T14:08:00Z,usnnjdm9,serial-reaction-time,1,R,4,0,59,1234,0,3,631.5,213,H
2023-04-04T14:08:00Z,usnnjdm9,serial-reaction-time,1,P,4,1,60,1234,0,2,390.5,132,H
2023-04-04T14:08:01Z,usnnjdm9,serial-reaction-time,1,R,4,1,61,1234,0,3,409.80000000074506,323,T
2023-04-04T14:08:02Z,usnnjdm9,serial-reaction-time,1,P,4,1,62,1234,0,3,339.69999999925494,233,H
2023-04-04T14:08:02Z,usnnjdm9,serial-reaction-time,1,R,4,1,63,1234,0,1,318.5,331,L
2023-04-04T14:08:02Z,usnnjdm9,serial-reaction-time,1,P,4,1,64,1234,0,4,374.19999999925494,314,H
2023-04-04T14:08:03Z,usnnjdm9,serial-reaction-time,1,R,4,1,65,1234,0,4,317.20000000298023,144,L
2023-04-04T14:08:03Z,usnnjdm9,serial-reaction-time,1,P,4,1,66,1234,0,1,317.80000000074506,441,H
2023-04-04T14:08:04Z,usnnjdm9,serial-reaction-time,1,R,4,1,67,1234,0,3,328.19999999925494,413,L
2023-04-04T14:08:04Z,usnnjdm9,serial-reaction-time,1,P,4,1,68,1234,0,2,335.29999999701977,132,H
2023-04-04T14:08:05Z,usnnjdm9,serial-reaction-time,1,R,4,1,69,1234,0,3,425.29999999701977,323,T
2023-04-04T14:08:05Z,usnnjdm9,serial-reaction-time,1,P,4,1,70,1234,0,3,322.3999999985099,233,H
2023-04-04T14:08:06Z,usnnjdm9,serial-reaction-time,1,R,4,1,71,1234,0,2,383.5,332,L
2023-04-04T14:08:06Z,usnnjdm9,serial-reaction-time,1,P,4,1,72,1234,0,4,461.29999999701977,324,H
2023-04-04T14:08:07Z,usnnjdm9,serial-reaction-time,1,R,4,1,73,1234,0,3,336.8999999985099,243,H
2023-04-04T14:08:07Z,usnnjdm9,serial-reaction-time,NA,P,4,1,74,1234,0,1,353.80000000074506,431,H
2023-04-04T14:08:07Z,usnnjdm9,serial-reaction-time,1,P,4,0,74,1234,0,1,408.30000000074506,431,H
2023-04-04T14:08:08Z,usnnjdm9,serial-reaction-time,1,R,4,1,75,1234,0,4,407,314,H
2023-04-04T14:08:08Z,usnnjdm9,serial-reaction-time,1,P,4,1,76,1234,0,2,333.5999999977648,142,H
2023-04-04T14:08:09Z,usnnjdm9,serial-reaction-time,1,R,4,1,77,1234,0,4,397.80000000074506,424,T
2023-04-04T14:08:09Z,usnnjdm9,serial-reaction-time,NA,P,4,1,78,1234,0,3,343,243,H
2023-04-04T14:08:10Z,usnnjdm9,serial-reaction-time,1,P,4,0,78,1234,0,3,495.6000000014901,243,H
2023-04-04T14:08:10Z,usnnjdm9,serial-reaction-time,1,R,4,1,79,1234,0,3,414.19999999925494,433,L
2023-04-04T14:08:11Z,usnnjdm9,serial-reaction-time,1,P,4,1,80,1234,0,4,398.5,334,H
2023-04-04T14:08:16Z,usnnjdm9,html-keyboard-response,NA,NA,NA,NA,NA,NA,NA,NA,NA,NA,NA
2023-04-04T14:08:23Z,usnnjdm9,html-keyboard-response,NA,NA,NA,NA,NA,NA,NA,NA,NA,NA,NA
2023-04-04T14:08:24Z,usnnjdm9,serial-reaction-time,1,R,5,1,1,1234,0,4,385.80000000074506,4,X
2023-04-04T14:08:25Z,usnnjdm9,serial-reaction-time,1,P,5,1,2,1234,0,1,306.8999999985099,41,X
2023-04-04T14:08:25Z,usnnjdm9,serial-reaction-time,1,R,5,1,3,1234,0,3,282.5999999977648,413,L
2023-04-04T14:08:25Z,usnnjdm9,serial-reaction-time,NA,P,5,1,4,1234,0,2,352.80000000074506,132,H
2023-04-04T14:08:26Z,usnnjdm9,serial-reaction-time,1,P,5,0,4,1234,0,2,502.3999999985099,132,H
2023-04-04T14:08:26Z,usnnjdm9,serial-reaction-time,1,R,5,1,5,1234,0,3,359.19999999925494,323,T
2023-04-04T14:08:27Z,usnnjdm9,serial-reaction-time,1,P,5,1,6,1234,0,3,363.3999999985099,233,H
2023-04-04T14:08:27Z,usnnjdm9,serial-reaction-time,1,R,5,1,7,1234,0,2,294.69999999925494,332,L
2023-04-04T14:08:28Z,usnnjdm9,serial-reaction-time,1,P,5,1,8,1234,0,4,338.19999999925494,324,H
2023-04-04T14:08:28Z,usnnjdm9,serial-reaction-time,1,R,5,1,9,1234,0,1,357.6000000014901,241,L
2023-04-04T14:08:28Z,usnnjdm9,serial-reaction-time,1,P,5,1,10,1234,0,1,293.5,411,H
2023-04-04T14:08:29Z,usnnjdm9,serial-reaction-time,1,R,5,1,11,1234,0,3,327.5999999977648,113,L
2023-04-04T14:08:29Z,usnnjdm9,serial-reaction-time,NA,P,5,1,12,1234,0,2,273.69999999925494,132,H
2023-04-04T14:08:30Z,usnnjdm9,serial-reaction-time,1,P,5,0,12,1234,0,2,503,132,H
2023-04-04T14:08:30Z,usnnjdm9,serial-reaction-time,1,R,5,1,13,1234,0,1,367.3999999985099,321,L
2023-04-04T14:08:31Z,usnnjdm9,serial-reaction-time,1,P,5,1,14,1234,0,3,367.69999999925494,213,H
2023-04-04T14:08:31Z,usnnjdm9,serial-reaction-time,1,R,5,1,15,1234,0,3,357.30000000074506,133,L
2023-04-04T14:08:32Z,usnnjdm9,serial-reaction-time,1,P,5,1,16,1234,0,4,362.8999999985099,334,H
2023-04-04T14:08:32Z,usnnjdm9,serial-reaction-time,1,R,5,1,17,1234,0,2,362.8999999985099,342,L
2023-04-04T14:08:33Z,usnnjdm9,serial-reaction-time,1,P,5,1,18,1234,0,1,356.3999999985099,421,H
2023-04-04T14:08:33Z,usnnjdm9,serial-reaction-time,1,R,5,1,19,1234,0,1,328.5,211,L
2023-04-04T14:08:33Z,usnnjdm9,serial-reaction-time,NA,P,5,1,20,1234,0,2,287.6000000014901,112,H
2023-04-04T14:08:34Z,usnnjdm9,serial-reaction-time,1,P,5,0,20,1234,0,2,571.1999999992549,112,H
2023-04-04T14:08:34Z,usnnjdm9,serial-reaction-time,NA,R,5,1,21,1234,0,4,282.20000000298023,124,L
2023-04-04T14:08:34Z,usnnjdm9,serial-reaction-time,1,R,5,0,21,1234,0,4,526.3000000044703,124,L
2023-04-04T14:08:35Z,usnnjdm9,serial-reaction-time,NA,P,5,1,22,1234,0,3,397.30000000074506,243,H
2023-04-04T14:08:35Z,usnnjdm9,serial-reaction-time,1,P,5,0,22,1234,0,3,507.5000000037253,243,H
2023-04-04T14:08:36Z,usnnjdm9,serial-reaction-time,1,R,5,1,23,1234,0,4,468.1000000014901,434,T
2023-04-04T14:08:36Z,usnnjdm9,serial-reaction-time,1,P,5,1,24,1234,0,4,290.5,344,H
2023-04-04T14:08:37Z,usnnjdm9,serial-reaction-time,1,R,5,1,25,1234,0,3,434.5,443,L
2023-04-04T14:08:37Z,usnnjdm9,serial-reaction-time,1,P,5,1,26,1234,0,1,341.69999999925494,431,H
2023-04-04T14:08:38Z,usnnjdm9,serial-reaction-time,1,R,5,1,27,1234,0,3,375.9000000022352,313,T
2023-04-04T14:08:38Z,usnnjdm9,serial-reaction-time,1,P,5,1,28,1234,0,2,378.20000000298023,132,H
2023-04-04T14:08:39Z,usnnjdm9,serial-reaction-time,1,R,5,1,29,1234,0,3,378.19999999925494,323,T
2023-04-04T14:08:39Z,usnnjdm9,serial-reaction-time,1,P,5,1,30,1234,0,3,363.19999999925494,233,H
2023-04-04T14:08:40Z,usnnjdm9,serial-reaction-time,NA,R,5,1,31,1234,0,2,336.5,332,L
2023-04-04T14:08:40Z,usnnjdm9,serial-reaction-time,1,R,5,0,31,1234,0,2,424.20000000298023,332,L
2023-04-04T14:08:40Z,usnnjdm9,serial-reaction-time,1,P,5,1,32,1234,0,4,383.8999999985099,324,H
2023-04-04T14:08:41Z,usnnjdm9,serial-reaction-time,1,R,5,1,33,1234,0,3,562.7000000029802,243,H
2023-04-04T14:08:41Z,usnnjdm9,serial-reaction-time,1,P,5,1,34,1234,0,1,388.79999999701977,431,H
2023-04-04T14:08:42Z,usnnjdm9,serial-reaction-time,1,R,5,1,35,1234,0,1,332.30000000074506,311,L
2023-04-04T14:08:42Z,usnnjdm9,serial-reaction-time,1,P,5,1,36,1234,0,2,389.4000000022352,112,H
2023-04-04T14:08:43Z,usnnjdm9,serial-reaction-time,1,R,5,1,37,1234,0,1,421.4000000022352,121,T
2023-04-04T14:08:44Z,usnnjdm9,serial-reaction-time,1,P,5,1,38,1234,0,3,392.19999999925494,213,H
2023-04-04T14:08:44Z,usnnjdm9,serial-reaction-time,1,R,5,1,39,1234,0,4,482,134,L
2023-04-04T14:08:45Z,usnnjdm9,serial-reaction-time,1,P,5,1,40,1234,0,4,332,344,H
2023-04-04T14:08:45Z,usnnjdm9,serial-reaction-time,1,R,5,1,41,1234,0,3,391.19999999925494,443,L
2023-04-04T14:08:46Z,usnnjdm9,serial-reaction-time,1,P,5,1,42,1234,0,1,339.29999999701977,431,H
2023-04-04T14:08:46Z,usnnjdm9,serial-reaction-time,1,R,5,1,43,1234,0,4,394.5,314,H
2023-04-04T14:08:47Z,usnnjdm9,serial-reaction-time,1,P,5,1,44,1234,0,2,386.69999999925494,142,H
2023-04-04T14:08:47Z,usnnjdm9,serial-reaction-time,1,R,5,1,45,1234,0,3,406.80000000074506,423,L
2023-04-04T14:08:48Z,usnnjdm9,serial-reaction-time,1,P,5,1,46,1234,0,3,512,233,H
2023-04-04T14:08:48Z,usnnjdm9,serial-reaction-time,1,R,5,1,47,1234,0,3,377,333,R
2023-04-04T14:08:49Z,usnnjdm9,serial-reaction-time,1,P,5,1,48,1234,0,4,353.20000000298023,334,H
2023-04-04T14:08:49Z,usnnjdm9,serial-reaction-time,1,R,5,1,49,1234,0,3,338.30000000074506,343,T
2023-04-04T14:08:50Z,usnnjdm9,serial-reaction-time,1,P,5,1,50,1234,0,1,346.80000000074506,431,H
2023-04-04T14:08:50Z,usnnjdm9,serial-reaction-time,1,R,5,1,51,1234,0,1,323.69999999925494,311,L
2023-04-04T14:08:51Z,usnnjdm9,serial-reaction-time,1,P,5,1,52,1234,0,2,492.29999999701977,112,H
2023-04-04T14:08:51Z,usnnjdm9,serial-reaction-time,1,R,5,1,53,1234,0,3,357.30000000074506,123,L
2023-04-04T14:08:52Z,usnnjdm9,serial-reaction-time,1,P,5,1,54,1234,0,3,292.30000000074506,233,H
2023-04-04T14:08:52Z,usnnjdm9,serial-reaction-time,1,R,5,1,55,1234,0,1,318.19999999925494,331,L
2023-04-04T14:08:53Z,usnnjdm9,serial-reaction-time,1,P,5,1,56,1234,0,4,432.80000000074506,314,H
2023-04-04T14:08:53Z,usnnjdm9,serial-reaction-time,1,R,5,1,57,1234,0,2,467.19999999925494,142,H
2023-04-04T14:08:54Z,usnnjdm9,serial-reaction-time,1,P,5,1,58,1234,0,1,442.1000000014901,421,H
2023-04-04T14:08:55Z,usnnjdm9,serial-reaction-time,1,R,5,1,59,1234,0,2,401.5,212,T
2023-04-04T14:08:55Z,usnnjdm9,serial-reaction-time,1,P,5,1,60,1234,0,2,400.3999999985099,122,H
2023-04-04T14:08:56Z,usnnjdm9,serial-reaction-time,1,R,5,1,61,1234,0,2,314,222,R
2023-04-04T14:08:56Z,usnnjdm9,serial-reaction-time,1,P,5,1,62,1234,0,3,391.80000000074506,223,H
2023-04-04T14:08:57Z,usnnjdm9,serial-reaction-time,NA,R,5,1,63,1234,0,2,374.1000000014901,232,T
2023-04-04T14:08:57Z,usnnjdm9,serial-reaction-time,1,R,5,0,63,1234,0,2,597.9000000022352,232,T
2023-04-04T14:08:57Z,usnnjdm9,serial-reaction-time,1,P,5,1,64,1234,0,4,374,324,H
2023-04-04T14:08:58Z,usnnjdm9,serial-reaction-time,1,R,5,1,65,1234,0,2,328.70000000298023,242,T
2023-04-04T14:08:58Z,usnnjdm9,serial-reaction-time,1,P,5,1,66,1234,0,1,380.0999999977648,421,H
2023-04-04T14:08:59Z,usnnjdm9,serial-reaction-time,1,R,5,1,67,1234,0,2,314.80000000074506,212,T
2023-04-04T14:08:59Z,usnnjdm9,serial-reaction-time,1,P,5,1,68,1234,0,2,350.8999999985099,122,H
2023-04-04T14:09:00Z,usnnjdm9,serial-reaction-time,1,R,5,1,69,1234,0,3,437.69999999925494,223,H
2023-04-04T14:09:00Z,usnnjdm9,serial-reaction-time,1,P,5,1,70,1234,0,3,327,233,H
2023-04-04T14:09:01Z,usnnjdm9,serial-reaction-time,1,R,5,1,71,1234,0,1,342.3999999985099,331,L
2023-04-04T14:09:01Z,usnnjdm9,serial-reaction-time,1,P,5,1,72,1234,0,4,376.69999999925494,314,H
2023-04-04T14:09:02Z,usnnjdm9,serial-reaction-time,1,R,5,1,73,1234,0,1,287.3999999985099,141,T
2023-04-04T14:09:02Z,usnnjdm9,serial-reaction-time,1,P,5,1,74,1234,0,1,326.3999999985099,411,H
2023-04-04T14:09:03Z,usnnjdm9,serial-reaction-time,1,R,5,1,75,1234,0,2,391.5,112,H
2023-04-04T14:09:03Z,usnnjdm9,serial-reaction-time,1,P,5,1,76,1234,0,2,311.80000000074506,122,H
2023-04-04T14:09:04Z,usnnjdm9,serial-reaction-time,1,R,5,1,77,1234,0,2,322.4000000022352,222,R
2023-04-04T14:09:04Z,usnnjdm9,serial-reaction-time,1,P,5,1,78,1234,0,3,422.20000000298023,223,H
2023-04-04T14:09:05Z,usnnjdm9,serial-reaction-time,1,R,5,1,79,1234,0,1,331.0999999977648,231,L
2023-04-04T14:09:05Z,usnnjdm9,serial-reaction-time,1,P,5,1,80,1234,0,4,446.30000000074506,314,H
2023-04-04T14:09:10Z,usnnjdm9,html-keyboard-response,NA,NA,NA,NA,NA,NA,NA,NA,NA,NA,NA
2023-04-04T14:09:13Z,usnnjdm9,html-keyboard-response,NA,NA,NA,NA,NA,NA,NA,NA,NA,NA,NA
2023-04-04T14:09:14Z,usnnjdm9,fullscreen,NA,NA,NA,NA,NA,NA,NA,NA,NA,NA,NA
2023-04-04T14:50:17Z,9eprutwa,fullscreen,NA,NA,NA,NA,NA,NA,NA,NA,NA,NA,NA
2023-04-04T14:50:24Z,9eprutwa,html-keyboard-response,NA,NA,NA,NA,NA,NA,NA,NA,NA,NA,NA
2023-04-04T14:50:25Z,9eprutwa,serial-reaction-time,1,R,1,1,1,3142,0,3,277.1000000014901,3,X
2023-04-04T14:50:25Z,9eprutwa,serial-reaction-time,1,P,1,1,2,3142,0,3,257.0999999977648,33,X
2023-04-04T14:50:26Z,9eprutwa,serial-reaction-time,1,R,1,1,3,3142,0,4,308.4000000022352,334,L
2023-04-04T14:50:26Z,9eprutwa,serial-reaction-time,1,P,1,1,4,3142,0,1,347.20000000298023,341,H
2023-04-04T14:50:27Z,9eprutwa,serial-reaction-time,NA,R,1,1,5,3142,0,4,320.30000000074506,414,T
2023-04-04T14:50:27Z,9eprutwa,serial-reaction-time,1,R,1,0,5,3142,0,4,412.30000000074506,414,T
2023-04-04T14:50:27Z,9eprutwa,serial-reaction-time,1,P,1,1,6,3142,0,4,275.20000000298023,144,H
2023-04-04T14:50:28Z,9eprutwa,serial-reaction-time,1,R,1,1,7,3142,0,2,333,442,H
2023-04-04T14:50:28Z,9eprutwa,serial-reaction-time,1,P,1,1,8,3142,0,2,248.19999999925497,422,H
2023-04-04T14:50:28Z,9eprutwa,serial-reaction-time,1,R,1,1,9,3142,0,2,313.1000000014901,222,R
2023-04-04T14:50:29Z,9eprutwa,serial-reaction-time,1,P,1,1,10,3142,0,3,316.30000000074506,223,H
2023-04-04T14:50:29Z,9eprutwa,serial-reaction-time,1,R,1,1,11,3142,0,4,343.30000000074506,234,L
2023-04-04T14:50:30Z,9eprutwa,serial-reaction-time,1,P,1,1,12,3142,0,1,361.3999999985099,341,H
2023-04-04T14:50:30Z,9eprutwa,serial-reaction-time,NA,R,1,1,13,3142,0,4,350.3999999985099,414,T
2023-04-04T14:50:30Z,9eprutwa,serial-reaction-time,1,R,1,0,13,3142,0,4,396.8999999985099,414,T
2023-04-04T14:50:31Z,9eprutwa,serial-reaction-time,1,P,1,1,14,3142,0,4,304.1000000014901,144,H
2023-04-04T14:50:31Z,9eprutwa,serial-reaction-time,1,R,1,1,15,3142,0,4,267.1000000014901,444,R
2023-04-04T14:50:32Z,9eprutwa,serial-reaction-time,1,P,1,1,16,3142,0,2,325.1000000014901,442,H
2023-04-04T14:50:32Z,9eprutwa,serial-reaction-time,1,R,1,1,17,3142,0,4,338.80000000074506,424,T
2023-04-04T14:50:33Z,9eprutwa,serial-reaction-time,1,P,1,1,18,3142,0,3,393.8999999985099,243,H
2023-04-04T14:50:33Z,9eprutwa,serial-reaction-time,1,R,1,1,19,3142,0,4,322.19999999925494,434,T
2023-04-04T14:50:34Z,9eprutwa,serial-reaction-time,1,P,1,1,20,3142,0,1,414.29999999701977,341,H
2023-04-04T14:50:34Z,9eprutwa,serial-reaction-time,1,R,1,1,21,3142,0,3,320.5999999977648,413,L
2023-04-04T14:50:35Z,9eprutwa,serial-reaction-time,1,P,1,1,22,3142,0,4,288.1000000014901,134,H
2023-04-04T14:50:35Z,9eprutwa,serial-reaction-time,1,R,1,1,23,3142,0,3,374,343,T
2023-04-04T14:50:36Z,9eprutwa,serial-reaction-time,1,P,1,1,24,3142,0,2,349.69999999925494,432,H
2023-04-04T14:50:36Z,9eprutwa,serial-reaction-time,1,R,1,1,25,3142,0,2,352.9000000022352,322,L
2023-04-04T14:50:37Z,9eprutwa,serial-reaction-time,1,P,1,1,26,3142,0,3,348.79999999701977,223,H
2023-04-04T14:50:37Z,9eprutwa,serial-reaction-time,1,R,1,1,27,3142,0,2,413.5999999977648,232,T
2023-04-04T14:50:38Z,9eprutwa,serial-reaction-time,1,P,1,1,28,3142,0,1,425.80000000074506,321,H
2023-04-04T14:50:38Z,9eprutwa,serial-reaction-time,1,R,1,1,29,3142,0,1,319.69999999925494,211,L
2023-04-04T14:50:39Z,9eprutwa,serial-reaction-time,NA,P,1,1,30,3142,0,4,321.0999999977648,114,H
2023-04-04T14:50:39Z,9eprutwa,serial-reaction-time,1,P,1,0,30,3142,0,4,652.4999999962747,114,H
2023-04-04T14:50:39Z,9eprutwa,serial-reaction-time,1,R,1,1,31,3142,0,4,266.5,144,H
2023-04-04T14:50:40Z,9eprutwa,serial-reaction-time,1,P,1,1,32,3142,0,2,319.69999999925494,442,H
2023-04-04T14:50:40Z,9eprutwa,serial-reaction-time,1,R,1,1,33,3142,0,1,377.69999999925494,421,L
2023-04-04T14:50:41Z,9eprutwa,serial-reaction-time,1,P,1,1,34,3142,0,3,310.69999999925494,213,H
2023-04-04T14:50:41Z,9eprutwa,serial-reaction-time,1,R,1,1,35,3142,0,4,337.5999999977648,134,H
2023-04-04T14:50:42Z,9eprutwa,serial-reaction-time,1,P,1,1,36,3142,0,1,350.5999999977648,341,H
2023-04-04T14:50:42Z,9eprutwa,serial-reaction-time,1,R,1,1,37,3142,0,1,290.9000000022352,411,L
2023-04-04T14:50:43Z,9eprutwa,serial-reaction-time,1,P,1,1,38,3142,0,4,342.6000000014901,114,H
2023-04-04T14:50:43Z,9eprutwa,serial-reaction-time,1,R,1,1,39,3142,0,2,392.69999999925494,142,L
2023-04-04T14:50:44Z,9eprutwa,serial-reaction-time,1,P,1,1,40,3142,0,2,254.19999999925497,422,H
2023-04-04T14:50:44Z,9eprutwa,serial-reaction-time,1,R,1,1,41,3142,0,2,327.5,222,R
2023-04-04T14:50:45Z,9eprutwa,serial-reaction-time,1,P,1,1,42,3142,0,3,325.3999999985099,223,H
2023-04-04T14:50:45Z,9eprutwa,serial-reaction-time,1,R,1,1,43,3142,0,3,289.80000000074506,233,H
2023-04-04T14:50:45Z,9eprutwa,serial-reaction-time,1,P,1,1,44,3142,0,1,350.3999999985099,331,H
2023-04-04T14:50:46Z,9eprutwa,serial-reaction-time,1,R,1,1,45,3142,0,3,316.1000000014901,313,T
2023-04-04T14:50:46Z,9eprutwa,serial-reaction-time,1,P,1,1,46,3142,0,4,315.30000000074506,134,H
2023-04-04T14:50:47Z,9eprutwa,serial-reaction-time,1,R,1,1,47,3142,0,4,307.30000000074506,344,L
2023-04-04T14:50:47Z,9eprutwa,serial-reaction-time,1,P,1,1,48,3142,0,2,333.8999999985099,442,H
2023-04-04T14:50:48Z,9eprutwa,serial-reaction-time,1,R,1,1,49,3142,0,3,403.3999999985099,423,L
2023-04-04T14:50:48Z,9eprutwa,serial-reaction-time,1,P,1,1,50,3142,0,3,295.30000000074506,233,H
2023-04-04T14:50:49Z,9eprutwa,serial-reaction-time,1,R,1,1,51,3142,0,3,312.8999999985099,333,R
2023-04-04T14:50:49Z,9eprutwa,serial-reaction-time,1,P,1,1,52,3142,0,1,356.80000000074506,331,H
2023-04-04T14:50:50Z,9eprutwa,serial-reaction-time,1,R,1,1,53,3142,0,3,357.69999999925494,313,T
2023-04-04T14:50:50Z,9eprutwa,serial-reaction-time,1,P,1,1,54,3142,0,4,379.8999999985099,134,H
2023-04-04T14:50:51Z,9eprutwa,serial-reaction-time,1,R,1,1,55,3142,0,4,291.5999999977648,344,L
2023-04-04T14:50:51Z,9eprutwa,serial-reaction-time,1,P,1,1,56,3142,0,2,342.69999999925494,442,H
2023-04-04T14:50:52Z,9eprutwa,serial-reaction-time,1,R,1,1,57,3142,0,4,328.69999999925494,424,T
2023-04-04T14:50:52Z,9eprutwa,serial-reaction-time,1,P,1,1,58,3142,0,3,369.5,243,H
2023-04-04T14:50:53Z,9eprutwa,serial-reaction-time,NA,R,1,1,59,3142,0,4,297.6000000014901,434,T
2023-04-04T14:50:53Z,9eprutwa,serial-reaction-time,1,R,1,0,59,3142,0,4,589.1999999992549,434,T
2023-04-04T14:50:53Z,9eprutwa,serial-reaction-time,1,P,1,1,60,3142,0,1,416.6000000014901,341,H
2023-04-04T14:50:54Z,9eprutwa,serial-reaction-time,1,R,1,1,61,3142,0,1,236.30000000074503,411,L
2023-04-04T14:50:54Z,9eprutwa,serial-reaction-time,1,P,1,1,62,3142,0,4,390.80000000074506,114,H
2023-04-04T14:50:55Z,9eprutwa,serial-reaction-time,1,R,1,1,63,3142,0,2,350.1000000014901,142,L
2023-04-04T14:50:55Z,9eprutwa,serial-reaction-time,1,P,1,1,64,3142,0,2,282.69999999925494,422,H
2023-04-04T14:50:56Z,9eprutwa,serial-reaction-time,1,R,1,1,65,3142,0,3,326.6000000014901,223,H
2023-04-04T14:50:56Z,9eprutwa,serial-reaction-time,1,P,1,1,66,3142,0,3,352.20000000298023,233,H
2023-04-04T14:50:57Z,9eprutwa,serial-reaction-time,1,R,1,1,67,3142,0,2,385.70000000298023,332,L
2023-04-04T14:50:57Z,9eprutwa,serial-reaction-time,1,P,1,1,68,3142,0,1,348.8999999985099,321,H
2023-04-04T14:50:58Z,9eprutwa,serial-reaction-time,NA,R,1,1,69,3142,0,2,375.80000000074506,212,T
2023-04-04T14:50:58Z,9eprutwa,serial-reaction-time,1,R,1,0,69,3142,0,2,523.3999999985099,212,T
2023-04-04T14:50:58Z,9eprutwa,serial-reaction-time,1,P,1,1,70,3142,0,4,429.4000000022352,124,H
2023-04-04T14:50:59Z,9eprutwa,serial-reaction-time,1,R,1,1,71,3142,0,2,375.5,242,T
2023-04-04T14:50:59Z,9eprutwa,serial-reaction-time,1,P,1,1,72,3142,0,2,332.80000000074506,422,H
2023-04-04T14:51:00Z,9eprutwa,serial-reaction-time,1,R,1,1,73,3142,0,2,329.5,222,R
2023-04-04T14:51:00Z,9eprutwa,serial-reaction-time,1,P,1,1,74,3142,0,3,350.80000000074506,223,H
2023-04-04T14:51:01Z,9eprutwa,serial-reaction-time,1,R,1,1,75,3142,0,3,315,233,H
2023-04-04T14:51:01Z,9eprutwa,serial-reaction-time,1,P,1,1,76,3142,0,1,363.1000000014901,331,H
2023-04-04T14:51:02Z,9eprutwa,serial-reaction-time,NA,R,1,1,77,3142,0,4,319.80000000074506,314,L
2023-04-04T14:51:02Z,9eprutwa,serial-reaction-time,1,R,1,0,77,3142,0,4,382.6000000014901,314,L
2023-04-04T14:51:02Z,9eprutwa,serial-reaction-time,1,P,1,1,78,3142,0,4,281.70000000298023,144,H
2023-04-04T14:51:03Z,9eprutwa,serial-reaction-time,1,R,1,1,79,3142,0,2,362.69999999925494,442,H
2023-04-04T14:51:03Z,9eprutwa,serial-reaction-time,1,P,1,1,80,3142,0,2,333.9000000022352,422,H
2023-04-04T14:51:08Z,9eprutwa,html-keyboard-response,NA,NA,NA,NA,NA,NA,NA,NA,NA,NA,NA
2023-04-04T14:51:12Z,9eprutwa,html-keyboard-response,NA,NA,NA,NA,NA,NA,NA,NA,NA,NA,NA
2023-04-04T14:51:13Z,9eprutwa,serial-reaction-time,1,R,2,1,1,3142,0,4,361,4,X
2023-04-04T14:51:14Z,9eprutwa,serial-reaction-time,1,P,2,1,2,3142,0,3,336.1000000014901,43,X
2023-04-04T14:51:14Z,9eprutwa,serial-reaction-time,NA,R,2,1,3,3142,0,2,346.5,432,H
2023-04-04T14:51:14Z,9eprutwa,serial-reaction-time,1,R,2,0,3,3142,0,2,362.1000000014901,432,H
2023-04-04T14:51:15Z,9eprutwa,serial-reaction-time,1,P,2,1,4,3142,0,1,353.80000000074506,321,H
2023-04-04T14:51:15Z,9eprutwa,serial-reaction-time,1,R,2,1,5,3142,0,1,323.70000000298023,211,L
2023-04-04T14:51:15Z,9eprutwa,serial-reaction-time,1,P,2,1,6,3142,0,4,277.30000000074506,114,H
2023-04-04T14:51:16Z,9eprutwa,serial-reaction-time,NA,R,2,1,7,3142,0,1,356.80000000074506,141,T
2023-04-04T14:51:16Z,9eprutwa,serial-reaction-time,1,R,2,0,7,3142,0,1,426.5000000037253,141,T
2023-04-04T14:51:17Z,9eprutwa,serial-reaction-time,NA,P,2,1,8,3142,0,2,390.3999999985099,412,H
2023-04-04T14:51:17Z,9eprutwa,serial-reaction-time,1,P,2,0,8,3142,0,2,467.19999999552965,412,H
2023-04-04T14:51:17Z,9eprutwa,serial-reaction-time,1,R,2,1,9,3142,0,2,290.6000000014901,122,L
2023-04-04T14:51:18Z,9eprutwa,serial-reaction-time,1,P,2,1,10,3142,0,3,332.19999999925494,223,H
2023-04-04T14:51:18Z,9eprutwa,serial-reaction-time,1,R,2,1,11,3142,0,4,341.80000000074506,234,L
2023-04-04T14:51:19Z,9eprutwa,serial-reaction-time,1,P,2,1,12,3142,0,1,349.80000000074506,341,H
2023-04-04T14:51:19Z,9eprutwa,serial-reaction-time,1,R,2,1,13,3142,0,2,405.69999999925494,412,H
2023-04-04T14:51:20Z,9eprutwa,serial-reaction-time,1,P,2,1,14,3142,0,4,384.30000000074506,124,H
2023-04-04T14:51:20Z,9eprutwa,serial-reaction-time,1,R,2,1,15,3142,0,1,435.70000000298023,241,L
2023-04-04T14:51:21Z,9eprutwa,serial-reaction-time,1,P,2,1,16,3142,0,2,371.69999999925494,412,H
2023-04-04T14:51:21Z,9eprutwa,serial-reaction-time,1,R,2,1,17,3142,0,4,342.19999999925494,124,H
2023-04-04T14:51:22Z,9eprutwa,serial-reaction-time,1,P,2,1,18,3142,0,3,400,243,H
2023-04-04T14:51:22Z,9eprutwa,serial-reaction-time,1,R,2,1,19,3142,0,2,336.1000000014901,432,H
2023-04-04T14:51:23Z,9eprutwa,serial-reaction-time,1,P,2,1,20,3142,0,1,305.3999999985099,321,H
2023-04-04T14:51:23Z,9eprutwa,serial-reaction-time,1,R,2,1,21,3142,0,1,335.70000000298023,211,L
2023-04-04T14:51:24Z,9eprutwa,serial-reaction-time,1,P,2,1,22,3142,0,4,311.6000000014901,114,H
2023-04-04T14:51:24Z,9eprutwa,serial-reaction-time,1,R,2,1,23,3142,0,2,363.19999999925494,142,L
2023-04-04T14:51:24Z,9eprutwa,serial-reaction-time,1,P,2,1,24,3142,0,2,276.80000000074506,422,H
2023-04-04T14:51:25Z,9eprutwa,serial-reaction-time,1,R,2,1,25,3142,0,4,349.5,224,L
2023-04-04T14:51:25Z,9eprutwa,serial-reaction-time,1,P,2,1,26,3142,0,3,353,243,H
2023-04-04T14:51:26Z,9eprutwa,serial-reaction-time,NA,R,2,1,27,3142,0,2,317.19999999925494,432,H
2023-04-04T14:51:26Z,9eprutwa,serial-reaction-time,1,R,2,0,27,3142,0,2,724.3999999985099,432,H
2023-04-04T14:51:27Z,9eprutwa,serial-reaction-time,1,P,2,1,28,3142,0,1,342,321,H
2023-04-04T14:51:27Z,9eprutwa,serial-reaction-time,1,R,2,1,29,3142,0,3,319.3999999985099,213,H
2023-04-04T14:51:28Z,9eprutwa,serial-reaction-time,1,P,2,1,30,3142,0,4,338.6000000014901,134,H
2023-04-04T14:51:28Z,9eprutwa,serial-reaction-time,1,R,2,1,31,3142,0,3,356.1000000014901,343,T
2023-04-04T14:51:29Z,9eprutwa,serial-reaction-time,1,P,2,1,32,3142,0,2,378.19999999925494,432,H
2023-04-04T14:51:29Z,9eprutwa,serial-reaction-time,NA,R,2,1,33,3142,0,3,376.6000000014901,323,T
2023-04-04T14:51:30Z,9eprutwa,serial-reaction-time,1,R,2,0,33,3142,0,3,680.3000000007451,323,T
2023-04-04T14:51:30Z,9eprutwa,serial-reaction-time,1,P,2,1,34,3142,0,3,286.0999999977648,233,H
2023-04-04T14:51:30Z,9eprutwa,serial-reaction-time,1,R,2,1,35,3142,0,2,403.3999999985099,332,L
2023-04-04T14:51:31Z,9eprutwa,serial-reaction-time,1,P,2,1,36,3142,0,1,281.6000000014901,321,H
2023-04-04T14:51:31Z,9eprutwa,serial-reaction-time,1,R,2,1,37,3142,0,3,319.30000000074506,213,H
2023-04-04T14:51:32Z,9eprutwa,serial-reaction-time,1,P,2,1,38,3142,0,4,394.80000000074506,134,H
2023-04-04T14:51:32Z,9eprutwa,serial-reaction-time,1,R,2,1,39,3142,0,2,360.6000000014901,342,L
2023-04-04T14:51:33Z,9eprutwa,serial-reaction-time,1,P,2,1,40,3142,0,2,354.80000000074506,422,H
2023-04-04T14:51:33Z,9eprutwa,serial-reaction-time,1,R,2,1,41,3142,0,4,315.3999999985099,224,L
2023-04-04T14:51:34Z,9eprutwa,serial-reaction-time,1,P,2,1,42,3142,0,3,384.69999999925494,243,H
2023-04-04T14:51:34Z,9eprutwa,serial-reaction-time,NA,R,2,1,43,3142,0,1,339.29999999701977,431,L
2023-04-04T14:51:34Z,9eprutwa,serial-reaction-time,1,R,2,0,43,3142,0,1,425.79999999701977,431,L
2023-04-04T14:51:35Z,9eprutwa,serial-reaction-time,1,P,2,1,44,3142,0,1,266.70000000298023,311,H
2023-04-04T14:51:35Z,9eprutwa,serial-reaction-time,1,R,2,1,45,3142,0,3,310,113,L
2023-04-04T14:51:36Z,9eprutwa,serial-reaction-time,1,P,2,1,46,3142,0,4,283.19999999925494,134,H
2023-04-04T14:51:36Z,9eprutwa,serial-reaction-time,1,R,2,1,47,3142,0,2,315.29999999701977,342,L
2023-04-04T14:51:37Z,9eprutwa,serial-reaction-time,1,P,2,1,48,3142,0,2,285.5999999977648,422,H
2023-04-04T14:51:37Z,9eprutwa,serial-reaction-time,1,R,2,1,49,3142,0,2,392,222,R
2023-04-04T14:51:38Z,9eprutwa,serial-reaction-time,1,P,2,1,50,3142,0,3,377.20000000298023,223,H
2023-04-04T14:51:38Z,9eprutwa,serial-reaction-time,1,R,2,1,51,3142,0,4,318.1000000014901,234,L
2023-04-04T14:51:39Z,9eprutwa,serial-reaction-time,1,P,2,1,52,3142,0,1,339.70000000298023,341,H
2023-04-04T14:51:39Z,9eprutwa,serial-reaction-time,NA,R,2,1,53,3142,0,4,386.69999999925494,414,T
2023-04-04T14:51:39Z,9eprutwa,serial-reaction-time,1,R,2,0,53,3142,0,4,465.9000000022352,414,T
2023-04-04T14:51:40Z,9eprutwa,serial-reaction-time,1,P,2,1,54,3142,0,4,296.6000000014901,144,H
2023-04-04T14:51:40Z,9eprutwa,serial-reaction-time,1,R,2,1,55,3142,0,3,344.6000000014901,443,L
2023-04-04T14:51:41Z,9eprutwa,serial-reaction-time,1,P,2,1,56,3142,0,2,342.6000000014901,432,H
2023-04-04T14:51:41Z,9eprutwa,serial-reaction-time,1,R,2,1,57,3142,0,1,338.80000000074506,321,H
2023-04-04T14:51:42Z,9eprutwa,serial-reaction-time,1,P,2,1,58,3142,0,3,365.80000000074506,213,H
2023-04-04T14:51:42Z,9eprutwa,serial-reaction-time,1,R,2,1,59,3142,0,2,367,132,L
2023-04-04T14:51:42Z,9eprutwa,serial-reaction-time,1,P,2,1,60,3142,0,1,335.0999999977648,321,H
2023-04-04T14:51:43Z,9eprutwa,serial-reaction-time,1,R,2,1,61,3142,0,4,323.9000000022352,214,L
2023-04-04T14:51:43Z,9eprutwa,serial-reaction-time,1,P,2,1,62,3142,0,4,344.9000000022352,144,H
2023-04-04T14:51:44Z,9eprutwa,serial-reaction-time,1,R,2,1,63,3142,0,1,319,441,L
2023-04-04T14:51:44Z,9eprutwa,serial-reaction-time,1,P,2,1,64,3142,0,2,418.5,412,H
2023-04-04T14:51:45Z,9eprutwa,serial-reaction-time,1,R,2,1,65,3142,0,2,322.5,122,L
2023-04-04T14:51:45Z,9eprutwa,serial-reaction-time,1,P,2,1,66,3142,0,3,318.0999999977648,223,H
2023-04-04T14:51:46Z,9eprutwa,serial-reaction-time,1,R,2,1,67,3142,0,4,298.69999999925494,234,L
2023-04-04T14:51:46Z,9eprutwa,serial-reaction-time,1,P,2,1,68,3142,0,1,314.69999999925494,341,H
2023-04-04T14:51:47Z,9eprutwa,serial-reaction-time,1,R,2,1,69,3142,0,3,337,413,L
2023-04-04T14:51:47Z,9eprutwa,serial-reaction-time,1,P,2,1,70,3142,0,4,345.70000000298023,134,H
2023-04-04T14:51:48Z,9eprutwa,serial-reaction-time,1,R,2,1,71,3142,0,2,521.3000000007451,342,L
2023-04-04T14:51:48Z,9eprutwa,serial-reaction-time,1,P,2,1,72,3142,0,2,353.5,422,H
2023-04-04T14:51:49Z,9eprutwa,serial-reaction-time,1,R,2,1,73,3142,0,3,353.69999999925494,223,H
2023-04-04T14:51:49Z,9eprutwa,serial-reaction-time,1,P,2,1,74,3142,0,3,297.30000000074506,233,H
2023-04-04T14:51:50Z,9eprutwa,serial-reaction-time,1,R,2,1,75,3142,0,2,372.4000000022352,332,L
2023-04-04T14:51:50Z,9eprutwa,serial-reaction-time,1,P,2,1,76,3142,0,1,331.5999999977648,321,H
2023-04-04T14:51:51Z,9eprutwa,serial-reaction-time,1,R,2,1,77,3142,0,1,319.1000000014901,211,L
2023-04-04T14:51:51Z,9eprutwa,serial-reaction-time,1,P,2,1,78,3142,0,4,389.6000000014901,114,H
2023-04-04T14:51:52Z,9eprutwa,serial-reaction-time,1,R,2,1,79,3142,0,4,334.5999999977648,144,H
2023-04-04T14:51:52Z,9eprutwa,serial-reaction-time,1,P,2,1,80,3142,0,2,432.5,442,H
2023-04-04T14:51:57Z,9eprutwa,html-keyboard-response,NA,NA,NA,NA,NA,NA,NA,NA,NA,NA,NA
2023-04-04T14:52:01Z,9eprutwa,html-keyboard-response,NA,NA,NA,NA,NA,NA,NA,NA,NA,NA,NA
2023-04-04T14:52:02Z,9eprutwa,serial-reaction-time,1,R,3,1,1,3142,0,1,326.80000000074506,1,X
2023-04-04T14:52:02Z,9eprutwa,serial-reaction-time,1,P,3,1,2,3142,0,3,315.80000000074506,13,X
2023-04-04T14:52:03Z,9eprutwa,serial-reaction-time,1,R,3,1,3,3142,0,1,367.19999999925494,131,T
2023-04-04T14:52:03Z,9eprutwa,serial-reaction-time,1,P,3,1,4,3142,0,1,253.80000000074503,311,H
2023-04-04T14:52:04Z,9eprutwa,serial-reaction-time,1,R,3,1,5,3142,0,3,321.5999999977648,113,L
2023-04-04T14:52:04Z,9eprutwa,serial-reaction-time,1,P,3,1,6,3142,0,4,292.29999999701977,134,H
2023-04-04T14:52:05Z,9eprutwa,serial-reaction-time,1,R,3,1,7,3142,0,3,344.19999999925494,343,T
2023-04-04T14:52:05Z,9eprutwa,serial-reaction-time,NA,P,3,1,8,3142,0,2,317.0999999977648,432,H
2023-04-04T14:52:06Z,9eprutwa,serial-reaction-time,1,P,3,0,8,3142,0,2,702.4999999962747,432,H
2023-04-04T14:52:06Z,9eprutwa,serial-reaction-time,1,R,3,1,9,3142,0,1,304.0999999977648,321,H
2023-04-04T14:52:06Z,9eprutwa,serial-reaction-time,1,P,3,1,10,3142,0,3,296.70000000298023,213,H
2023-04-04T14:52:07Z,9eprutwa,serial-reaction-time,1,R,3,1,11,3142,0,1,335.6000000014901,131,T
2023-04-04T14:52:07Z,9eprutwa,serial-reaction-time,1,P,3,1,12,3142,0,1,277.3999999985099,311,H
2023-04-04T14:52:08Z,9eprutwa,serial-reaction-time,1,R,3,1,13,3142,0,1,308.80000000074506,111,R
2023-04-04T14:52:08Z,9eprutwa,serial-reaction-time,1,P,3,1,14,3142,0,4,319.3999999985099,114,H
2023-04-04T14:52:09Z,9eprutwa,serial-reaction-time,1,R,3,1,15,3142,0,3,315.6000000014901,143,L
2023-04-04T14:52:09Z,9eprutwa,serial-reaction-time,1,P,3,1,16,3142,0,2,383.6000000014901,432,H
2023-04-04T14:52:10Z,9eprutwa,serial-reaction-time,1,R,3,1,17,3142,0,1,341.19999999925494,321,H
2023-04-04T14:52:10Z,9eprutwa,serial-reaction-time,1,P,3,1,18,3142,0,3,321.4000000022352,213,H
2023-04-04T14:52:10Z,9eprutwa,serial-reaction-time,1,R,3,1,19,3142,0,4,278.0999999977648,134,H
2023-04-04T14:52:11Z,9eprutwa,serial-reaction-time,1,P,3,1,20,3142,0,1,342.3999999985099,341,H
2023-04-04T14:52:12Z,9eprutwa,serial-reaction-time,1,R,3,1,21,3142,0,4,441.3999999985099,414,T
2023-04-04T14:52:12Z,9eprutwa,serial-reaction-time,1,P,3,1,22,3142,0,4,314.3999999985099,144,H
2023-04-04T14:52:12Z,9eprutwa,serial-reaction-time,1,R,3,1,23,3142,0,3,338.9000000022352,443,L
2023-04-04T14:52:13Z,9eprutwa,serial-reaction-time,NA,P,3,1,24,3142,0,2,333.5999999977648,432,H
2023-04-04T14:52:13Z,9eprutwa,serial-reaction-time,1,P,3,0,24,3142,0,2,697.5999999977648,432,H
2023-04-04T14:52:14Z,9eprutwa,serial-reaction-time,1,R,3,1,25,3142,0,3,354,323,T
2023-04-04T14:52:14Z,9eprutwa,serial-reaction-time,1,P,3,1,26,3142,0,3,315.69999999925494,233,H
2023-04-04T14:52:15Z,9eprutwa,serial-reaction-time,1,R,3,1,27,3142,0,1,332.0999999977648,331,H
2023-04-04T14:52:15Z,9eprutwa,serial-reaction-time,1,P,3,1,28,3142,0,1,291.8999999985099,311,H
2023-04-04T14:52:16Z,9eprutwa,serial-reaction-time,1,R,3,1,29,3142,0,3,300.0999999977648,113,L
2023-04-04T14:52:16Z,9eprutwa,serial-reaction-time,NA,P,3,1,30,3142,0,4,320.20000000298023,134,H
2023-04-04T14:52:16Z,9eprutwa,serial-reaction-time,1,P,3,0,30,3142,0,4,422.9000000022352,134,H
2023-04-04T14:52:17Z,9eprutwa,serial-reaction-time,1,R,3,1,31,3142,0,3,383.0999999977648,343,T
2023-04-04T14:52:17Z,9eprutwa,serial-reaction-time,NA,P,3,1,32,3142,0,2,278.80000000074506,432,H
2023-04-04T14:52:17Z,9eprutwa,serial-reaction-time,1,P,3,0,32,3142,0,2,665.1000000014901,432,H
2023-04-04T14:52:18Z,9eprutwa,serial-reaction-time,1,R,3,1,33,3142,0,1,312.3999999985099,321,H
2023-04-04T14:52:18Z,9eprutwa,serial-reaction-time,1,P,3,1,34,3142,0,3,290.1000000014901,213,H
2023-04-04T14:52:19Z,9eprutwa,serial-reaction-time,1,R,3,1,35,3142,0,2,431.8999999985099,132,L
2023-04-04T14:52:19Z,9eprutwa,serial-reaction-time,1,P,3,1,36,3142,0,1,326.80000000074506,321,H
2023-04-04T14:52:20Z,9eprutwa,serial-reaction-time,NA,R,3,1,37,3142,0,2,319.80000000074506,212,T
2023-04-04T14:52:20Z,9eprutwa,serial-reaction-time,1,R,3,0,37,3142,0,2,662.6000000014901,212,T
2023-04-04T14:52:21Z,9eprutwa,serial-reaction-time,1,P,3,1,38,3142,0,4,481.19999999925494,124,H
2023-04-04T14:52:21Z,9eprutwa,serial-reaction-time,1,R,3,1,39,3142,0,3,325.3999999985099,243,H
2023-04-04T14:52:22Z,9eprutwa,serial-reaction-time,1,P,3,1,40,3142,0,2,346.6000000014901,432,H
2023-04-04T14:52:22Z,9eprutwa,serial-reaction-time,1,R,3,1,41,3142,0,2,337.80000000074506,322,L
2023-04-04T14:52:23Z,9eprutwa,serial-reaction-time,1,P,3,1,42,3142,0,3,409.5,223,H
2023-04-04T14:52:23Z,9eprutwa,serial-reaction-time,1,R,3,1,43,3142,0,2,352,232,T
2023-04-04T14:52:24Z,9eprutwa,serial-reaction-time,1,P,3,1,44,3142,0,1,402.1000000014901,321,H
2023-04-04T14:52:24Z,9eprutwa,serial-reaction-time,1,R,3,1,45,3142,0,4,362,214,L
2023-04-04T14:52:25Z,9eprutwa,serial-reaction-time,1,P,3,1,46,3142,0,4,337.20000000298023,144,H
2023-04-04T14:52:25Z,9eprutwa,serial-reaction-time,1,R,3,1,47,3142,0,4,314.0999999977648,444,R
2023-04-04T14:52:26Z,9eprutwa,serial-reaction-time,1,P,3,1,48,3142,0,2,394.5,442,H
2023-04-04T14:52:26Z,9eprutwa,serial-reaction-time,1,R,3,1,49,3142,0,3,308.3999999985099,423,L
2023-04-04T14:52:27Z,9eprutwa,serial-reaction-time,1,P,3,1,50,3142,0,3,294.6000000014901,233,H
2023-04-04T14:52:27Z,9eprutwa,serial-reaction-time,1,R,3,1,51,3142,0,4,336.0999999977648,334,L
2023-04-04T14:52:28Z,9eprutwa,serial-reaction-time,1,P,3,1,52,3142,0,1,376.30000000074506,341,H
2023-04-04T14:52:28Z,9eprutwa,serial-reaction-time,1,R,3,1,53,3142,0,3,322,413,L
2023-04-04T14:52:29Z,9eprutwa,serial-reaction-time,1,P,3,1,54,3142,0,4,333.5,134,H
2023-04-04T14:52:29Z,9eprutwa,serial-reaction-time,1,R,3,1,55,3142,0,2,323.20000000298023,342,L
2023-04-04T14:52:30Z,9eprutwa,serial-reaction-time,1,P,3,1,56,3142,0,2,435.1000000014901,422,H
2023-04-04T14:52:30Z,9eprutwa,serial-reaction-time,NA,R,3,1,57,3142,0,3,333.0999999977648,223,H
2023-04-04T14:52:30Z,9eprutwa,serial-reaction-time,1,R,3,0,57,3142,0,3,642.5,223,H
2023-04-04T14:52:31Z,9eprutwa,serial-reaction-time,1,P,3,1,58,3142,0,3,290.5,233,H
2023-04-04T14:52:31Z,9eprutwa,serial-reaction-time,1,R,3,1,59,3142,0,3,311.5,333,R
2023-04-04T14:52:32Z,9eprutwa,serial-reaction-time,NA,P,3,1,60,3142,0,1,441.70000000298023,331,H
2023-04-04T14:52:32Z,9eprutwa,serial-reaction-time,1,P,3,0,60,3142,0,1,759.9000000022352,331,H
2023-04-04T14:52:33Z,9eprutwa,serial-reaction-time,1,R,3,1,61,3142,0,2,432,312,L
2023-04-04T14:52:33Z,9eprutwa,serial-reaction-time,1,P,3,1,62,3142,0,4,377,124,H
2023-04-04T14:52:34Z,9eprutwa,serial-reaction-time,1,R,3,1,63,3142,0,4,315.30000000074506,244,L
2023-04-04T14:52:34Z,9eprutwa,serial-reaction-time,1,P,3,1,64,3142,0,2,349.1000000014901,442,H
2023-04-04T14:52:35Z,9eprutwa,serial-reaction-time,1,R,3,1,65,3142,0,4,328.5,424,T
2023-04-04T14:52:35Z,9eprutwa,serial-reaction-time,1,P,3,1,66,3142,0,3,437.3999999985099,243,H
2023-04-04T14:52:36Z,9eprutwa,serial-reaction-time,1,R,3,1,67,3142,0,3,303.80000000074506,433,L
2023-04-04T14:52:36Z,9eprutwa,serial-reaction-time,1,P,3,1,68,3142,0,1,337.69999999925494,331,H
2023-04-04T14:52:37Z,9eprutwa,serial-reaction-time,1,R,3,1,69,3142,0,1,313.0999999977648,311,H
2023-04-04T14:52:37Z,9eprutwa,serial-reaction-time,1,P,3,1,70,3142,0,4,369.80000000074506,114,H
2023-04-04T14:52:38Z,9eprutwa,serial-reaction-time,NA,R,3,1,71,3142,0,1,395.3999999985099,141,T
2023-04-04T14:52:38Z,9eprutwa,serial-reaction-time,1,R,3,0,71,3142,0,1,478.79999999701977,141,T
2023-04-04T14:52:38Z,9eprutwa,serial-reaction-time,NA,P,3,1,72,3142,0,2,415.5999999977648,412,H
2023-04-04T14:52:38Z,9eprutwa,serial-reaction-time,1,P,3,0,72,3142,0,2,548.8999999947846,412,H
2023-04-04T14:52:39Z,9eprutwa,serial-reaction-time,1,R,3,1,73,3142,0,2,352.79999999701977,122,L
2023-04-04T14:52:39Z,9eprutwa,serial-reaction-time,1,P,3,1,74,3142,0,3,307.4000000022352,223,H
2023-04-04T14:52:40Z,9eprutwa,serial-reaction-time,1,R,3,1,75,3142,0,1,325.6000000014901,231,L
2023-04-04T14:52:40Z,9eprutwa,serial-reaction-time,1,P,3,1,76,3142,0,1,314.8999999985099,311,H
2023-04-04T14:52:41Z,9eprutwa,serial-reaction-time,1,R,3,1,77,3142,0,4,341.79999999701977,114,H
2023-04-04T14:52:41Z,9eprutwa,serial-reaction-time,1,P,3,1,78,3142,0,4,326.8999999985099,144,H
2023-04-04T14:52:42Z,9eprutwa,serial-reaction-time,1,R,3,1,79,3142,0,4,312.80000000074506,444,R
2023-04-04T14:52:42Z,9eprutwa,serial-reaction-time,1,P,3,1,80,3142,0,2,420.5999999977648,442,H
2023-04-04T14:52:47Z,9eprutwa,html-keyboard-response,NA,NA,NA,NA,NA,NA,NA,NA,NA,NA,NA
2023-04-04T14:52:48Z,9eprutwa,html-keyboard-response,NA,NA,NA,NA,NA,NA,NA,NA,NA,NA,NA
2023-04-04T14:52:49Z,9eprutwa,serial-reaction-time,1,R,4,1,1,3142,0,1,323.6000000014901,1,X
2023-04-04T14:52:49Z,9eprutwa,serial-reaction-time,1,P,4,1,2,3142,0,3,309.5999999977648,13,X
2023-04-04T14:52:50Z,9eprutwa,serial-reaction-time,NA,R,4,1,3,3142,0,2,357.19999999925494,132,L
2023-04-04T14:52:50Z,9eprutwa,serial-reaction-time,1,R,4,0,3,3142,0,2,660.5,132,L
2023-04-04T14:52:51Z,9eprutwa,serial-reaction-time,1,P,4,1,4,3142,0,1,350.3999999985099,321,H
2023-04-04T14:52:51Z,9eprutwa,serial-reaction-time,1,R,4,1,5,3142,0,3,343.8999999985099,213,H
2023-04-04T14:52:52Z,9eprutwa,serial-reaction-time,1,P,4,1,6,3142,0,4,339.5999999977648,134,H
2023-04-04T14:52:52Z,9eprutwa,serial-reaction-time,1,R,4,1,7,3142,0,3,343,343,T
2023-04-04T14:52:53Z,9eprutwa,serial-reaction-time,1,P,4,1,8,3142,0,2,356.5999999977648,432,H
2023-04-04T14:52:53Z,9eprutwa,serial-reaction-time,1,R,4,1,9,3142,0,3,372.19999999925494,323,T
2023-04-04T14:52:54Z,9eprutwa,serial-reaction-time,1,P,4,1,10,3142,0,3,310.30000000074506,233,H
2023-04-04T14:52:54Z,9eprutwa,serial-reaction-time,1,R,4,1,11,3142,0,4,309,334,L
2023-04-04T14:52:55Z,9eprutwa,serial-reaction-time,1,P,4,1,12,3142,0,1,367.4000000022352,341,H
2023-04-04T14:52:55Z,9eprutwa,serial-reaction-time,1,R,4,1,13,3142,0,1,251.90000000223517,411,L
2023-04-04T14:52:56Z,9eprutwa,serial-reaction-time,1,P,4,1,14,3142,0,4,408.9000000022352,114,H
2023-04-04T14:52:56Z,9eprutwa,serial-reaction-time,1,R,4,1,15,3142,0,2,340.70000000298023,142,L
2023-04-04T14:52:56Z,9eprutwa,serial-reaction-time,1,P,4,1,16,3142,0,2,284,422,H
2023-04-04T14:52:57Z,9eprutwa,serial-reaction-time,1,R,4,1,17,3142,0,3,328.8999999985099,223,H
2023-04-04T14:52:57Z,9eprutwa,serial-reaction-time,1,P,4,1,18,3142,0,3,298.1000000014901,233,H
2023-04-04T14:52:58Z,9eprutwa,serial-reaction-time,1,R,4,1,19,3142,0,2,394.5,332,L
2023-04-04T14:52:58Z,9eprutwa,serial-reaction-time,1,P,4,1,20,3142,0,1,399.80000000074506,321,H
2023-04-04T14:52:59Z,9eprutwa,serial-reaction-time,1,R,4,1,21,3142,0,3,375.30000000074506,213,H
2023-04-04T14:52:59Z,9eprutwa,serial-reaction-time,1,P,4,1,22,3142,0,4,317.69999999925494,134,H
2023-04-04T14:53:00Z,9eprutwa,serial-reaction-time,1,R,4,1,23,3142,0,4,320.20000000298023,344,L
2023-04-04T14:53:00Z,9eprutwa,serial-reaction-time,1,P,4,1,24,3142,0,2,403.30000000074506,442,H
2023-04-04T14:53:01Z,9eprutwa,serial-reaction-time,1,R,4,1,25,3142,0,4,386.3999999985099,424,T
2023-04-04T14:53:01Z,9eprutwa,serial-reaction-time,1,P,4,1,26,3142,0,3,370.69999999925494,243,H
2023-04-04T14:53:02Z,9eprutwa,serial-reaction-time,1,R,4,1,27,3142,0,1,336.69999999925494,431,L
2023-04-04T14:53:02Z,9eprutwa,serial-reaction-time,1,P,4,1,28,3142,0,1,295.6000000014901,311,H
2023-04-04T14:53:03Z,9eprutwa,serial-reaction-time,NA,R,4,1,29,3142,0,2,297.80000000074506,112,L
2023-04-04T14:53:03Z,9eprutwa,serial-reaction-time,1,R,4,0,29,3142,0,2,643.7000000029802,112,L
2023-04-04T14:53:04Z,9eprutwa,serial-reaction-time,1,P,4,1,30,3142,0,4,360.80000000074506,124,H
2023-04-04T14:53:04Z,9eprutwa,serial-reaction-time,1,R,4,1,31,3142,0,1,363.6000000014901,241,L
2023-04-04T14:53:05Z,9eprutwa,serial-reaction-time,1,P,4,1,32,3142,0,2,398.19999999925494,412,H
2023-04-04T14:53:05Z,9eprutwa,serial-reaction-time,1,R,4,1,33,3142,0,2,343.3999999985099,122,L
2023-04-04T14:53:06Z,9eprutwa,serial-reaction-time,1,P,4,1,34,3142,0,3,342.5999999977648,223,H
2023-04-04T14:53:06Z,9eprutwa,serial-reaction-time,1,R,4,1,35,3142,0,1,392.5,231,L
2023-04-04T14:53:07Z,9eprutwa,serial-reaction-time,1,P,4,1,36,3142,0,1,336.69999999925494,311,H
2023-04-04T14:53:07Z,9eprutwa,serial-reaction-time,1,R,4,1,37,3142,0,1,318.70000000298023,111,R
2023-04-04T14:53:08Z,9eprutwa,serial-reaction-time,1,P,4,1,38,3142,0,4,404.3999999985099,114,H
2023-04-04T14:53:08Z,9eprutwa,serial-reaction-time,1,R,4,1,39,3142,0,4,258.5,144,H
2023-04-04T14:53:08Z,9eprutwa,serial-reaction-time,1,P,4,1,40,3142,0,2,352.30000000074506,442,H
2023-04-04T14:53:09Z,9eprutwa,serial-reaction-time,1,R,4,1,41,3142,0,3,295.30000000074506,423,L
2023-04-04T14:53:09Z,9eprutwa,serial-reaction-time,1,P,4,1,42,3142,0,3,303.70000000298023,233,H
2023-04-04T14:53:10Z,9eprutwa,serial-reaction-time,1,R,4,1,43,3142,0,1,321.5999999977648,331,H
2023-04-04T14:53:10Z,9eprutwa,serial-reaction-time,1,P,4,1,44,3142,0,1,322.20000000298023,311,H
2023-04-04T14:53:11Z,9eprutwa,serial-reaction-time,1,R,4,1,45,3142,0,1,282.69999999925494,111,R
2023-04-04T14:53:11Z,9eprutwa,serial-reaction-time,1,P,4,1,46,3142,0,4,319.9000000022352,114,H
2023-04-04T14:53:12Z,9eprutwa,serial-reaction-time,1,R,4,1,47,3142,0,4,330.5,144,H
2023-04-04T14:53:12Z,9eprutwa,serial-reaction-time,1,P,4,1,48,3142,0,2,354.6000000014901,442,H
2023-04-04T14:53:13Z,9eprutwa,serial-reaction-time,1,R,4,1,49,3142,0,4,339.1000000014901,424,T
2023-04-04T14:53:13Z,9eprutwa,serial-reaction-time,1,P,4,1,50,3142,0,3,402.30000000074506,243,H
2023-04-04T14:53:14Z,9eprutwa,serial-reaction-time,1,R,4,1,51,3142,0,3,281.5999999977648,433,L
2023-04-04T14:53:14Z,9eprutwa,serial-reaction-time,1,P,4,1,52,3142,0,1,379.30000000074506,331,H
2023-04-04T14:53:15Z,9eprutwa,serial-reaction-time,1,R,4,1,53,3142,0,3,366.5,313,T
2023-04-04T14:53:15Z,9eprutwa,serial-reaction-time,1,P,4,1,54,3142,0,4,318,134,H
2023-04-04T14:53:16Z,9eprutwa,serial-reaction-time,1,R,4,1,55,3142,0,2,356.19999999925494,342,L
2023-04-04T14:53:16Z,9eprutwa,serial-reaction-time,1,P,4,1,56,3142,0,2,322.69999999925494,422,H
2023-04-04T14:53:16Z,9eprutwa,serial-reaction-time,1,R,4,1,57,3142,0,4,329.5999999977648,224,L
2023-04-04T14:53:17Z,9eprutwa,serial-reaction-time,1,P,4,1,58,3142,0,3,319.80000000074506,243,H
2023-04-04T14:53:17Z,9eprutwa,serial-reaction-time,1,R,4,1,59,3142,0,4,387.5999999977648,434,T
2023-04-04T14:53:18Z,9eprutwa,serial-reaction-time,1,P,4,1,60,3142,0,1,355.79999999701977,341,H
2023-04-04T14:53:18Z,9eprutwa,serial-reaction-time,1,R,4,1,61,3142,0,3,328.8999999985099,413,L
2023-04-04T14:53:19Z,9eprutwa,serial-reaction-time,1,P,4,1,62,3142,0,4,376,134,H
2023-04-04T14:53:19Z,9eprutwa,serial-reaction-time,1,R,4,1,63,3142,0,3,388.69999999925494,343,T
2023-04-04T14:53:20Z,9eprutwa,serial-reaction-time,1,P,4,1,64,3142,0,2,376.0999999977648,432,H
2023-04-04T14:53:20Z,9eprutwa,serial-reaction-time,1,R,4,1,65,3142,0,1,336,321,H
2023-04-04T14:53:21Z,9eprutwa,serial-reaction-time,1,P,4,1,66,3142,0,3,332.6000000014901,213,H
2023-04-04T14:53:21Z,9eprutwa,serial-reaction-time,1,R,4,1,67,3142,0,3,303.8999999985099,133,L
2023-04-04T14:53:22Z,9eprutwa,serial-reaction-time,1,P,4,1,68,3142,0,1,457.6000000014901,331,H
2023-04-04T14:53:22Z,9eprutwa,serial-reaction-time,NA,R,4,1,69,3142,0,4,336.4000000022352,314,L
2023-04-04T14:53:22Z,9eprutwa,serial-reaction-time,1,R,4,0,69,3142,0,4,370.80000000074506,314,L
2023-04-04T14:53:23Z,9eprutwa,serial-reaction-time,1,P,4,1,70,3142,0,4,311.20000000298023,144,H
2023-04-04T14:53:23Z,9eprutwa,serial-reaction-time,1,R,4,1,71,3142,0,4,327.1000000014901,444,R
2023-04-04T14:53:24Z,9eprutwa,serial-reaction-time,1,P,4,1,72,3142,0,2,359.6000000014901,442,H
2023-04-04T14:53:24Z,9eprutwa,serial-reaction-time,1,R,4,1,73,3142,0,1,372.3999999985099,421,L
2023-04-04T14:53:25Z,9eprutwa,serial-reaction-time,1,P,4,1,74,3142,0,3,334,213,H
2023-04-04T14:53:25Z,9eprutwa,serial-reaction-time,1,R,4,1,75,3142,0,1,367.5,131,T
2023-04-04T14:53:26Z,9eprutwa,serial-reaction-time,1,P,4,1,76,3142,0,1,324.29999999701977,311,H
2023-04-04T14:53:26Z,9eprutwa,serial-reaction-time,1,R,4,1,77,3142,0,4,327.80000000074506,114,H
2023-04-04T14:53:27Z,9eprutwa,serial-reaction-time,1,P,4,1,78,3142,0,4,317.6000000014901,144,H
2023-04-04T14:53:27Z,9eprutwa,serial-reaction-time,1,R,4,1,79,3142,0,3,359.5,443,L
2023-04-04T14:53:28Z,9eprutwa,serial-reaction-time,1,P,4,1,80,3142,0,2,354.6000000014901,432,H
2023-04-04T14:53:33Z,9eprutwa,html-keyboard-response,NA,NA,NA,NA,NA,NA,NA,NA,NA,NA,NA
2023-04-04T14:53:35Z,9eprutwa,html-keyboard-response,NA,NA,NA,NA,NA,NA,NA,NA,NA,NA,NA
2023-04-04T14:53:36Z,9eprutwa,serial-reaction-time,1,R,5,1,1,3142,0,3,358,3,X
2023-04-04T14:53:37Z,9eprutwa,serial-reaction-time,1,P,5,1,2,3142,0,3,256.80000000074506,33,X
2023-04-04T14:53:37Z,9eprutwa,serial-reaction-time,1,R,5,1,3,3142,0,1,302.80000000074506,331,H
2023-04-04T14:53:38Z,9eprutwa,serial-reaction-time,1,P,5,1,4,3142,0,1,236.39999999850988,311,H
2023-04-04T14:53:38Z,9eprutwa,serial-reaction-time,1,R,5,1,5,3142,0,1,307.1000000014901,111,R
2023-04-04T14:53:38Z,9eprutwa,serial-reaction-time,1,P,5,1,6,3142,0,4,282.5999999977648,114,H
2023-04-04T14:53:39Z,9eprutwa,serial-reaction-time,1,R,5,1,7,3142,0,4,347.80000000074506,144,H
2023-04-04T14:53:39Z,9eprutwa,serial-reaction-time,1,P,5,1,8,3142,0,2,384.3999999985099,442,H
2023-04-04T14:53:40Z,9eprutwa,serial-reaction-time,1,R,5,1,9,3142,0,3,367.30000000074506,423,L
2023-04-04T14:53:40Z,9eprutwa,serial-reaction-time,1,P,5,1,10,3142,0,3,269.5,233,H
2023-04-04T14:53:41Z,9eprutwa,serial-reaction-time,1,R,5,1,11,3142,0,4,310.30000000074506,334,L
2023-04-04T14:53:41Z,9eprutwa,serial-reaction-time,1,P,5,1,12,3142,0,1,432.80000000074506,341,H
2023-04-04T14:53:42Z,9eprutwa,serial-reaction-time,NA,R,5,1,13,3142,0,2,254.69999999925497,412,H
2023-04-04T14:53:42Z,9eprutwa,serial-reaction-time,1,R,5,0,13,3142,0,2,563.3999999985099,412,H
2023-04-04T14:53:43Z,9eprutwa,serial-reaction-time,1,P,5,1,14,3142,0,4,391,124,H
2023-04-04T14:53:43Z,9eprutwa,serial-reaction-time,1,R,5,1,15,3142,0,3,310.30000000074506,243,H
2023-04-04T14:53:44Z,9eprutwa,serial-reaction-time,1,P,5,1,16,3142,0,2,449.4000000022352,432,H
2023-04-04T14:53:44Z,9eprutwa,serial-reaction-time,1,R,5,1,17,3142,0,3,369.30000000074506,323,T
2023-04-04T14:53:45Z,9eprutwa,serial-reaction-time,1,P,5,1,18,3142,0,3,293.5999999977648,233,H
2023-04-04T14:53:45Z,9eprutwa,serial-reaction-time,1,R,5,1,19,3142,0,3,304.19999999925494,333,R
2023-04-04T14:53:45Z,9eprutwa,serial-reaction-time,1,P,5,1,20,3142,0,1,342.80000000074506,331,H
2023-04-04T14:53:46Z,9eprutwa,serial-reaction-time,1,R,5,1,21,3142,0,1,274.30000000074506,311,H
2023-04-04T14:53:46Z,9eprutwa,serial-reaction-time,1,P,5,1,22,3142,0,4,367.69999999925494,114,H
2023-04-04T14:53:47Z,9eprutwa,serial-reaction-time,1,R,5,1,23,3142,0,4,331.20000000298023,144,H
2023-04-04T14:53:47Z,9eprutwa,serial-reaction-time,1,P,5,1,24,3142,0,2,380.3999999985099,442,H
2023-04-04T14:53:48Z,9eprutwa,serial-reaction-time,1,R,5,1,25,3142,0,1,371.1000000014901,421,L
2023-04-04T14:53:48Z,9eprutwa,serial-reaction-time,1,P,5,1,26,3142,0,3,341.1000000014901,213,H
2023-04-04T14:53:49Z,9eprutwa,serial-reaction-time,1,R,5,1,27,3142,0,3,334.79999999701977,133,L
2023-04-04T14:53:49Z,9eprutwa,serial-reaction-time,1,P,5,1,28,3142,0,1,386.19999999925494,331,H
2023-04-04T14:53:50Z,9eprutwa,serial-reaction-time,1,R,5,1,29,3142,0,1,271.19999999925494,311,H
2023-04-04T14:53:50Z,9eprutwa,serial-reaction-time,1,P,5,1,30,3142,0,4,324.80000000074506,114,H
2023-04-04T14:53:51Z,9eprutwa,serial-reaction-time,1,R,5,1,31,3142,0,1,414.8999999985099,141,T
2023-04-04T14:53:51Z,9eprutwa,serial-reaction-time,1,P,5,1,32,3142,0,2,419.20000000298023,412,H
2023-04-04T14:53:52Z,9eprutwa,serial-reaction-time,1,R,5,1,33,3142,0,2,268.19999999925494,122,L
2023-04-04T14:53:52Z,9eprutwa,serial-reaction-time,1,P,5,1,34,3142,0,3,343.4000000022352,223,H
2023-04-04T14:53:53Z,9eprutwa,serial-reaction-time,1,R,5,1,35,3142,0,1,274.0999999977648,231,L
2023-04-04T14:53:53Z,9eprutwa,serial-reaction-time,1,P,5,1,36,3142,0,1,280.1000000014901,311,H
2023-04-04T14:53:53Z,9eprutwa,serial-reaction-time,1,R,5,1,37,3142,0,3,325.69999999925494,113,L
2023-04-04T14:53:54Z,9eprutwa,serial-reaction-time,1,P,5,1,38,3142,0,4,357.0999999977648,134,H
2023-04-04T14:53:54Z,9eprutwa,serial-reaction-time,1,R,5,1,39,3142,0,4,290.8999999985099,344,L
2023-04-04T14:53:55Z,9eprutwa,serial-reaction-time,1,P,5,1,40,3142,0,2,343.8999999985099,442,H
2023-04-04T14:53:55Z,9eprutwa,serial-reaction-time,1,R,5,1,41,3142,0,1,289.3999999985099,421,L
2023-04-04T14:53:56Z,9eprutwa,serial-reaction-time,1,P,5,1,42,3142,0,3,308.70000000298023,213,H
2023-04-04T14:53:56Z,9eprutwa,serial-reaction-time,1,R,5,1,43,3142,0,1,334.4000000022352,131,T
2023-04-04T14:53:57Z,9eprutwa,serial-reaction-time,1,P,5,1,44,3142,0,1,310.1000000014901,311,H
2023-04-04T14:53:57Z,9eprutwa,serial-reaction-time,1,R,5,1,45,3142,0,4,335.69999999925494,114,H
2023-04-04T14:53:58Z,9eprutwa,serial-reaction-time,1,P,5,1,46,3142,0,4,297.5999999977648,144,H
2023-04-04T14:53:58Z,9eprutwa,serial-reaction-time,NA,R,5,1,47,3142,0,3,348.5,443,L
2023-04-04T14:53:58Z,9eprutwa,serial-reaction-time,1,R,5,0,47,3142,0,3,662.8999999985099,443,L
2023-04-04T14:53:59Z,9eprutwa,serial-reaction-time,1,P,5,1,48,3142,0,2,459.19999999925494,432,H
2023-04-04T14:53:59Z,9eprutwa,serial-reaction-time,1,R,5,1,49,3142,0,1,302.5999999977648,321,H
2023-04-04T14:54:00Z,9eprutwa,serial-reaction-time,1,P,5,1,50,3142,0,3,356.5,213,H
2023-04-04T14:54:00Z,9eprutwa,serial-reaction-time,1,R,5,1,51,3142,0,3,313.19999999925494,133,L
2023-04-04T14:54:01Z,9eprutwa,serial-reaction-time,NA,P,5,1,52,3142,0,1,348.9000000022352,331,H
2023-04-04T14:54:01Z,9eprutwa,serial-reaction-time,1,P,5,0,52,3142,0,1,392.9000000022352,331,H
2023-04-04T14:54:01Z,9eprutwa,serial-reaction-time,NA,R,5,1,53,3142,0,3,420.8999999985099,313,T
2023-04-04T14:54:02Z,9eprutwa,serial-reaction-time,1,R,5,0,53,3142,0,3,511.0999999977648,313,T
2023-04-04T14:54:02Z,9eprutwa,serial-reaction-time,1,P,5,1,54,3142,0,4,420.19999999925494,134,H
2023-04-04T14:54:03Z,9eprutwa,serial-reaction-time,1,R,5,1,55,3142,0,2,413.30000000074506,342,L
2023-04-04T14:54:03Z,9eprutwa,serial-reaction-time,1,P,5,1,56,3142,0,2,309.80000000074506,422,H
2023-04-04T14:54:04Z,9eprutwa,serial-reaction-time,1,R,5,1,57,3142,0,1,402.9000000022352,221,L
2023-04-04T14:54:04Z,9eprutwa,serial-reaction-time,1,P,5,1,58,3142,0,3,364.79999999701977,213,H
2023-04-04T14:54:05Z,9eprutwa,serial-reaction-time,NA,R,5,1,59,3142,0,2,390.80000000074506,132,L
2023-04-04T14:54:05Z,9eprutwa,serial-reaction-time,1,R,5,0,59,3142,0,2,784.8999999985099,132,L
2023-04-04T14:54:06Z,9eprutwa,serial-reaction-time,1,P,5,1,60,3142,0,1,480.80000000074506,321,H
2023-04-04T14:54:06Z,9eprutwa,serial-reaction-time,NA,R,5,1,61,3142,0,2,333.5999999977648,212,T
2023-04-04T14:54:06Z,9eprutwa,serial-reaction-time,1,R,5,0,61,3142,0,2,661.3000000007451,212,T
2023-04-04T14:54:07Z,9eprutwa,serial-reaction-time,1,P,5,1,62,3142,0,4,391.80000000074506,124,H
2023-04-04T14:54:07Z,9eprutwa,serial-reaction-time,NA,R,5,1,63,3142,0,1,344.4000000022352,241,L
2023-04-04T14:54:08Z,9eprutwa,serial-reaction-time,1,R,5,0,63,3142,0,1,704.2000000029802,241,L
2023-04-04T14:54:08Z,9eprutwa,serial-reaction-time,1,P,5,1,64,3142,0,2,429.30000000074506,412,H
2023-04-04T14:54:09Z,9eprutwa,serial-reaction-time,1,R,5,1,65,3142,0,3,364.5,123,L
2023-04-04T14:54:09Z,9eprutwa,serial-reaction-time,1,P,5,1,66,3142,0,3,316.80000000074506,233,H
2023-04-04T14:54:10Z,9eprutwa,serial-reaction-time,1,R,5,1,67,3142,0,1,406.1000000014901,331,H
2023-04-04T14:54:10Z,9eprutwa,serial-reaction-time,1,P,5,1,68,3142,0,1,363.30000000074506,311,H
2023-04-04T14:54:11Z,9eprutwa,serial-reaction-time,1,R,5,1,69,3142,0,3,330.1000000014901,113,L
2023-04-04T14:54:11Z,9eprutwa,serial-reaction-time,1,P,5,1,70,3142,0,4,298.20000000298023,134,H
2023-04-04T14:54:12Z,9eprutwa,serial-reaction-time,1,R,5,1,71,3142,0,3,333.20000000298023,343,T
2023-04-04T14:54:12Z,9eprutwa,serial-reaction-time,1,P,5,1,72,3142,0,2,341.30000000074506,432,H
2023-04-04T14:54:13Z,9eprutwa,serial-reaction-time,1,R,5,1,73,3142,0,4,354.5,324,L
2023-04-04T14:54:13Z,9eprutwa,serial-reaction-time,1,P,5,1,74,3142,0,3,314.5999999977648,243,H
2023-04-04T14:54:14Z,9eprutwa,serial-reaction-time,1,R,5,1,75,3142,0,3,369.9000000022352,433,L
2023-04-04T14:54:14Z,9eprutwa,serial-reaction-time,1,P,5,1,76,3142,0,1,452.1000000014901,331,H
2023-04-04T14:54:15Z,9eprutwa,serial-reaction-time,1,R,5,1,77,3142,0,1,274.1000000014901,311,H
2023-04-04T14:54:15Z,9eprutwa,serial-reaction-time,1,P,5,1,78,3142,0,4,393.8999999985099,114,H
2023-04-04T14:54:16Z,9eprutwa,serial-reaction-time,1,R,5,1,79,3142,0,1,391.29999999701977,141,T
2023-04-04T14:54:16Z,9eprutwa,serial-reaction-time,1,P,5,1,80,3142,0,2,434.19999999925494,412,H
2023-04-04T14:54:21Z,9eprutwa,html-keyboard-response,NA,NA,NA,NA,NA,NA,NA,NA,NA,NA,NA
2023-04-04T14:54:24Z,9eprutwa,html-keyboard-response,NA,NA,NA,NA,NA,NA,NA,NA,NA,NA,NA
2023-04-04T14:54:25Z,9eprutwa,fullscreen,NA,NA,NA,NA,NA,NA,NA,NA,NA,NA,NA
2023-04-04T14:54:49Z,mtu8p5sa,fullscreen,NA,NA,NA,NA,NA,NA,NA,NA,NA,NA,NA
2023-04-04T14:54:51Z,mtu8p5sa,html-keyboard-response,NA,NA,NA,NA,NA,NA,NA,NA,NA,NA,NA
2023-04-04T14:54:54Z,mtu8p5sa,serial-reaction-time,1,R,1,1,1,4312,0,1,2278.2000000476837,1,X
2023-04-04T14:54:55Z,mtu8p5sa,serial-reaction-time,1,P,1,1,2,4312,0,4,316,14,X
2023-04-04T14:54:55Z,mtu8p5sa,serial-reaction-time,1,R,1,1,3,4312,0,3,262.89999997615814,143,L
2023-04-04T14:54:55Z,mtu8p5sa,serial-reaction-time,1,P,1,1,4,4312,0,3,200.10000002384183,433,H
2023-04-04T14:54:56Z,mtu8p5sa,serial-reaction-time,1,R,1,1,5,4312,0,3,255.40000009536743,333,R
2023-04-04T14:54:56Z,mtu8p5sa,serial-reaction-time,1,P,1,1,6,4312,0,1,279.89999997615814,331,H
2023-04-04T14:54:57Z,mtu8p5sa,serial-reaction-time,1,R,1,1,7,4312,0,3,309.7999999523163,313,T
2023-04-04T14:54:57Z,mtu8p5sa,serial-reaction-time,1,P,1,1,8,4312,0,2,430.40000009536743,132,H
2023-04-04T14:54:58Z,mtu8p5sa,serial-reaction-time,1,R,1,1,9,4312,0,4,271.7000000476837,324,L
2023-04-04T14:54:58Z,mtu8p5sa,serial-reaction-time,1,P,1,1,10,4312,0,4,286.39999997615814,244,H
2023-04-04T14:54:59Z,mtu8p5sa,serial-reaction-time,1,R,1,1,11,4312,0,1,386.8000000715256,441,L
2023-04-04T14:54:59Z,mtu8p5sa,serial-reaction-time,1,P,1,1,12,4312,0,3,290.5,413,H
2023-04-04T14:54:59Z,mtu8p5sa,serial-reaction-time,1,R,1,1,13,4312,0,1,305.39999997615814,131,T
2023-04-04T14:55:00Z,mtu8p5sa,serial-reaction-time,1,P,1,1,14,4312,0,1,279.3000000715256,311,H
2023-04-04T14:55:00Z,mtu8p5sa,serial-reaction-time,1,R,1,1,15,4312,0,2,363.5,112,H
2023-04-04T14:55:01Z,mtu8p5sa,serial-reaction-time,1,P,1,1,16,4312,0,2,273,122,H
2023-04-04T14:55:01Z,mtu8p5sa,serial-reaction-time,1,R,1,1,17,4312,0,2,225.89999997615817,222,R
2023-04-04T14:55:02Z,mtu8p5sa,serial-reaction-time,1,P,1,1,18,4312,0,4,353.2999999523163,224,H
2023-04-04T14:55:02Z,mtu8p5sa,serial-reaction-time,1,R,1,1,19,4312,0,4,254.89999997615817,244,H
2023-04-04T14:55:02Z,mtu8p5sa,serial-reaction-time,1,P,1,1,20,4312,0,3,284.90000009536743,443,H
2023-04-04T14:55:03Z,mtu8p5sa,serial-reaction-time,1,R,1,1,21,4312,0,1,298.7999999523163,431,L
2023-04-04T14:55:03Z,mtu8p5sa,serial-reaction-time,1,P,1,1,22,4312,0,1,232.5,311,H
2023-04-04T14:55:04Z,mtu8p5sa,serial-reaction-time,1,R,1,1,23,4312,0,2,342,112,H
2023-04-04T14:55:04Z,mtu8p5sa,serial-reaction-time,1,P,1,1,24,4312,0,2,229.09999990463257,122,H
2023-04-04T14:55:04Z,mtu8p5sa,serial-reaction-time,1,R,1,1,25,4312,0,4,300,224,H
2023-04-04T14:55:05Z,mtu8p5sa,serial-reaction-time,1,P,1,1,26,4312,0,4,241.39999997615817,244,H
2023-04-04T14:55:05Z,mtu8p5sa,serial-reaction-time,1,R,1,1,27,4312,0,4,264.5,444,R
2023-04-04T14:55:06Z,mtu8p5sa,serial-reaction-time,1,P,1,1,28,4312,0,3,294.39999997615814,443,H
2023-04-04T14:55:06Z,mtu8p5sa,serial-reaction-time,1,R,1,1,29,4312,0,4,278.5,434,T
2023-04-04T14:55:06Z,mtu8p5sa,serial-reaction-time,1,P,1,1,30,4312,0,1,346,341,H
2023-04-04T14:55:07Z,mtu8p5sa,serial-reaction-time,1,R,1,1,31,4312,0,1,230.20000004768372,411,L
2023-04-04T14:55:07Z,mtu8p5sa,serial-reaction-time,1,P,1,1,32,4312,0,2,304.40000009536743,112,H
2023-04-04T14:55:08Z,mtu8p5sa,serial-reaction-time,1,R,1,1,33,4312,0,4,369.7999999523163,124,L
2023-04-04T14:55:08Z,mtu8p5sa,serial-reaction-time,1,P,1,1,34,4312,0,4,237.10000002384183,244,H
2023-04-04T14:55:08Z,mtu8p5sa,serial-reaction-time,1,R,1,1,35,4312,0,3,255.19999992847443,443,H
2023-04-04T14:55:09Z,mtu8p5sa,serial-reaction-time,1,P,1,1,36,4312,0,3,276.10000002384186,433,H
2023-04-04T14:55:09Z,mtu8p5sa,serial-reaction-time,1,R,1,1,37,4312,0,4,293.2000000476837,334,L
2023-04-04T14:55:10Z,mtu8p5sa,serial-reaction-time,1,P,1,1,38,4312,0,1,293,341,H
2023-04-04T14:55:10Z,mtu8p5sa,serial-reaction-time,1,R,1,1,39,4312,0,4,356.60000002384186,414,T
2023-04-04T14:55:11Z,mtu8p5sa,serial-reaction-time,NA,P,1,1,40,4312,0,2,229.19999992847443,142,H
2023-04-04T14:55:11Z,mtu8p5sa,serial-reaction-time,1,P,1,0,40,4312,0,2,411.89999997615814,142,H
2023-04-04T14:55:11Z,mtu8p5sa,serial-reaction-time,1,R,1,1,41,4312,0,1,395.60000002384186,421,L
2023-04-04T14:55:12Z,mtu8p5sa,serial-reaction-time,1,P,1,1,42,4312,0,4,305.7999999523163,214,H
2023-04-04T14:55:12Z,mtu8p5sa,serial-reaction-time,1,R,1,1,43,4312,0,3,281.1999999284744,143,L
2023-04-04T14:55:12Z,mtu8p5sa,serial-reaction-time,1,P,1,1,44,4312,0,3,245,433,H
2023-04-04T14:55:13Z,mtu8p5sa,serial-reaction-time,1,R,1,1,45,4312,0,3,241.69999992847443,333,R
2023-04-04T14:55:13Z,mtu8p5sa,serial-reaction-time,1,P,1,1,46,4312,0,1,266,331,H
2023-04-04T14:55:14Z,mtu8p5sa,serial-reaction-time,1,R,1,1,47,4312,0,4,285.39999997615814,314,L
2023-04-04T14:55:14Z,mtu8p5sa,serial-reaction-time,1,P,1,1,48,4312,0,2,326.89999997615814,142,H
2023-04-04T14:55:14Z,mtu8p5sa,serial-reaction-time,NA,R,1,1,49,4312,0,3,168.10000002384186,423,H
2023-04-04T14:55:15Z,mtu8p5sa,serial-reaction-time,1,R,1,0,49,4312,0,3,405.2999999523163,423,H
2023-04-04T14:55:15Z,mtu8p5sa,serial-reaction-time,1,P,1,1,50,4312,0,4,299.59999990463257,234,H
2023-04-04T14:55:16Z,mtu8p5sa,serial-reaction-time,NA,R,1,1,51,4312,0,2,282.7999999523163,342,L
2023-04-04T14:55:16Z,mtu8p5sa,serial-reaction-time,1,R,1,0,51,4312,0,2,513.0999999046326,342,L
2023-04-04T14:55:16Z,mtu8p5sa,serial-reaction-time,NA,P,1,1,52,4312,0,3,271.5,423,H
2023-04-04T14:55:16Z,mtu8p5sa,serial-reaction-time,1,P,1,0,52,4312,0,3,401.89999997615814,423,H
2023-04-04T14:55:17Z,mtu8p5sa,serial-reaction-time,1,R,1,1,53,4312,0,1,256.7000000476837,231,L
2023-04-04T14:55:17Z,mtu8p5sa,serial-reaction-time,1,P,1,1,54,4312,0,1,262.10000002384186,311,H
2023-04-04T14:55:18Z,mtu8p5sa,serial-reaction-time,1,R,1,1,55,4312,0,2,419.2999999523163,112,H
2023-04-04T14:55:18Z,mtu8p5sa,serial-reaction-time,1,P,1,1,56,4312,0,2,292.10000002384186,122,H
2023-04-04T14:55:18Z,mtu8p5sa,serial-reaction-time,1,R,1,1,57,4312,0,1,339.8000000715256,221,L
2023-04-04T14:55:19Z,mtu8p5sa,serial-reaction-time,1,P,1,1,58,4312,0,4,309.10000002384186,214,H
2023-04-04T14:55:19Z,mtu8p5sa,serial-reaction-time,NA,R,1,1,59,4312,0,2,314.1999999284744,142,H
2023-04-04T14:55:19Z,mtu8p5sa,serial-reaction-time,1,R,1,0,59,4312,0,2,346.1999999284744,142,H
2023-04-04T14:55:20Z,mtu8p5sa,serial-reaction-time,1,P,1,1,60,4312,0,3,327.7000000476837,423,H
2023-04-04T14:55:20Z,mtu8p5sa,serial-reaction-time,1,R,1,1,61,4312,0,2,291.6999999284744,232,T
2023-04-04T14:55:21Z,mtu8p5sa,serial-reaction-time,1,P,1,1,62,4312,0,1,280.2999999523163,321,H
2023-04-04T14:55:21Z,mtu8p5sa,serial-reaction-time,1,R,1,1,63,4312,0,1,241.89999997615817,211,L
2023-04-04T14:55:22Z,mtu8p5sa,serial-reaction-time,1,P,1,1,64,4312,0,2,379.09999990463257,112,H
2023-04-04T14:55:22Z,mtu8p5sa,serial-reaction-time,1,R,1,1,65,4312,0,2,278.10000002384186,122,H
2023-04-04T14:55:22Z,mtu8p5sa,serial-reaction-time,1,P,1,1,66,4312,0,4,318.7000000476837,224,H
2023-04-04T14:55:23Z,mtu8p5sa,serial-reaction-time,1,R,1,1,67,4312,0,3,302.2999999523163,243,L
2023-04-04T14:55:23Z,mtu8p5sa,serial-reaction-time,1,P,1,1,68,4312,0,3,239.70000004768372,433,H
2023-04-04T14:55:24Z,mtu8p5sa,serial-reaction-time,1,R,1,1,69,4312,0,2,316.10000002384186,332,L
2023-04-04T14:55:24Z,mtu8p5sa,serial-reaction-time,1,P,1,1,70,4312,0,1,300,321,H
2023-04-04T14:55:24Z,mtu8p5sa,serial-reaction-time,1,R,1,1,71,4312,0,1,216.19999992847443,211,L
2023-04-04T14:55:25Z,mtu8p5sa,serial-reaction-time,1,P,1,1,72,4312,0,2,295.1999999284744,112,H
2023-04-04T14:55:25Z,mtu8p5sa,serial-reaction-time,1,R,1,1,73,4312,0,4,335.40000009536743,124,L
2023-04-04T14:55:26Z,mtu8p5sa,serial-reaction-time,1,P,1,1,74,4312,0,4,240.30000007152557,244,H
2023-04-04T14:55:26Z,mtu8p5sa,serial-reaction-time,1,R,1,1,75,4312,0,3,267.40000009536743,443,H
2023-04-04T14:55:26Z,mtu8p5sa,serial-reaction-time,1,P,1,1,76,4312,0,3,237.10000002384183,433,H
2023-04-04T14:55:27Z,mtu8p5sa,serial-reaction-time,1,R,1,1,77,4312,0,3,257.6999999284744,333,R
2023-04-04T14:55:27Z,mtu8p5sa,serial-reaction-time,1,P,1,1,78,4312,0,1,287.6999999284744,331,H
2023-04-04T14:55:28Z,mtu8p5sa,serial-reaction-time,NA,R,1,1,79,4312,0,3,278,313,T
2023-04-04T14:55:28Z,mtu8p5sa,serial-reaction-time,1,R,1,0,79,4312,0,3,588.2999999523163,313,T
2023-04-04T14:55:28Z,mtu8p5sa,serial-reaction-time,1,P,1,1,80,4312,0,2,348.7000000476837,132,H
2023-04-04T14:55:33Z,mtu8p5sa,html-keyboard-response,NA,NA,NA,NA,NA,NA,NA,NA,NA,NA,NA
2023-04-04T14:55:34Z,mtu8p5sa,html-keyboard-response,NA,NA,NA,NA,NA,NA,NA,NA,NA,NA,NA
2023-04-04T14:55:35Z,mtu8p5sa,serial-reaction-time,1,R,2,1,1,4312,0,2,614.6000000238419,2,X
2023-04-04T14:55:36Z,mtu8p5sa,serial-reaction-time,1,P,2,1,2,4312,0,4,289.2999999523163,24,X
2023-04-04T14:55:36Z,mtu8p5sa,serial-reaction-time,1,R,2,1,3,4312,0,1,297.5,241,L
2023-04-04T14:55:37Z,mtu8p5sa,serial-reaction-time,1,P,2,1,4,4312,0,3,329.89999997615814,413,H
2023-04-04T14:55:37Z,mtu8p5sa,serial-reaction-time,1,R,2,1,5,4312,0,3,232.70000004768372,133,L
2023-04-04T14:55:37Z,mtu8p5sa,serial-reaction-time,1,P,2,1,6,4312,0,1,283.5,331,H
2023-04-04T14:55:38Z,mtu8p5sa,serial-reaction-time,1,R,2,1,7,4312,0,4,317.2999999523163,314,L
2023-04-04T14:55:38Z,mtu8p5sa,serial-reaction-time,1,P,2,1,8,4312,0,2,320.2000000476837,142,H
2023-04-04T14:55:39Z,mtu8p5sa,serial-reaction-time,1,R,2,1,9,4312,0,2,249.89999997615817,422,L
2023-04-04T14:55:39Z,mtu8p5sa,serial-reaction-time,1,P,2,1,10,4312,0,4,309.89999997615814,224,H
2023-04-04T14:55:39Z,mtu8p5sa,serial-reaction-time,1,R,2,1,11,4312,0,4,270.60000002384186,244,H
2023-04-04T14:55:40Z,mtu8p5sa,serial-reaction-time,1,P,2,1,12,4312,0,3,316.7999999523163,443,H
2023-04-04T14:55:40Z,mtu8p5sa,serial-reaction-time,1,R,2,1,13,4312,0,2,304.60000002384186,432,L
2023-04-04T14:55:41Z,mtu8p5sa,serial-reaction-time,1,P,2,1,14,4312,0,1,294.7000000476837,321,H
2023-04-04T14:55:41Z,mtu8p5sa,serial-reaction-time,1,R,2,1,15,4312,0,3,292,213,L
2023-04-04T14:55:42Z,mtu8p5sa,serial-reaction-time,1,P,2,1,16,4312,0,2,319.2000000476837,132,H
2023-04-04T14:55:42Z,mtu8p5sa,serial-reaction-time,1,R,2,1,17,4312,0,4,270.10000002384186,324,L
2023-04-04T14:55:42Z,mtu8p5sa,serial-reaction-time,1,P,2,1,18,4312,0,4,297.10000002384186,244,H
2023-04-04T14:55:43Z,mtu8p5sa,serial-reaction-time,NA,R,2,1,19,4312,0,1,335.5,441,L
2023-04-04T14:55:43Z,mtu8p5sa,serial-reaction-time,1,R,2,0,19,4312,0,1,534.5,441,L
2023-04-04T14:55:44Z,mtu8p5sa,serial-reaction-time,1,P,2,1,20,4312,0,3,266.1999999284744,413,H
2023-04-04T14:55:44Z,mtu8p5sa,serial-reaction-time,1,R,2,1,21,4312,0,3,259,133,L
2023-04-04T14:55:44Z,mtu8p5sa,serial-reaction-time,1,P,2,1,22,4312,0,1,304.2999999523163,331,H
2023-04-04T14:55:45Z,mtu8p5sa,serial-reaction-time,1,R,2,1,23,4312,0,1,269.59999990463257,311,H
2023-04-04T14:55:45Z,mtu8p5sa,serial-reaction-time,1,P,2,1,24,4312,0,2,308.7999999523163,112,H
2023-04-04T14:55:46Z,mtu8p5sa,serial-reaction-time,1,R,2,1,25,4312,0,3,338,123,L
2023-04-04T14:55:46Z,mtu8p5sa,serial-reaction-time,1,P,2,1,26,4312,0,4,313.10000002384186,234,H
2023-04-04T14:55:46Z,mtu8p5sa,serial-reaction-time,1,R,2,1,27,4312,0,4,250.90000009536743,344,L
2023-04-04T14:55:47Z,mtu8p5sa,serial-reaction-time,1,P,2,1,28,4312,0,3,303.1999999284744,443,H
2023-04-04T14:55:47Z,mtu8p5sa,serial-reaction-time,1,R,2,1,29,4312,0,3,260.39999997615814,433,H
2023-04-04T14:55:48Z,mtu8p5sa,serial-reaction-time,1,P,2,1,30,4312,0,1,263.5,331,H
2023-04-04T14:55:48Z,mtu8p5sa,serial-reaction-time,1,R,2,1,31,4312,0,2,317.7000000476837,312,L
2023-04-04T14:55:48Z,mtu8p5sa,serial-reaction-time,1,P,2,1,32,4312,0,2,233.20000004768372,122,H
2023-04-04T14:55:49Z,mtu8p5sa,serial-reaction-time,1,R,2,1,33,4312,0,3,293.7999999523163,223,L
2023-04-04T14:55:49Z,mtu8p5sa,serial-reaction-time,1,P,2,1,34,4312,0,4,297.5,234,H
2023-04-04T14:55:50Z,mtu8p5sa,serial-reaction-time,1,R,2,1,35,4312,0,2,291.2000000476837,342,L
2023-04-04T14:55:50Z,mtu8p5sa,serial-reaction-time,1,P,2,1,36,4312,0,3,349.1999999284744,423,H
2023-04-04T14:55:51Z,mtu8p5sa,serial-reaction-time,NA,R,2,1,37,4312,0,1,313.10000002384186,231,L
2023-04-04T14:55:51Z,mtu8p5sa,serial-reaction-time,1,R,2,0,37,4312,0,1,532.2999999523163,231,L
2023-04-04T14:55:51Z,mtu8p5sa,serial-reaction-time,1,P,2,1,38,4312,0,1,282.6999999284744,311,H
2023-04-04T14:55:52Z,mtu8p5sa,serial-reaction-time,1,R,2,1,39,4312,0,3,276.5,113,L
2023-04-04T14:55:52Z,mtu8p5sa,serial-reaction-time,1,P,2,1,40,4312,0,2,457.8000000715256,132,H
2023-04-04T14:55:53Z,mtu8p5sa,serial-reaction-time,1,R,2,1,41,4312,0,1,382.60000002384186,321,H
2023-04-04T14:55:53Z,mtu8p5sa,serial-reaction-time,1,P,2,1,42,4312,0,4,332.89999997615814,214,H
2023-04-04T14:55:54Z,mtu8p5sa,serial-reaction-time,1,R,2,1,43,4312,0,4,286.59999990463257,144,L
2023-04-04T14:55:54Z,mtu8p5sa,serial-reaction-time,NA,P,2,1,44,4312,0,3,208.09999990463257,443,H
2023-04-04T14:55:54Z,mtu8p5sa,serial-reaction-time,1,P,2,0,44,4312,0,3,424.4999998807907,443,H
2023-04-04T14:55:55Z,mtu8p5sa,serial-reaction-time,1,R,2,1,45,4312,0,4,352.89999997615814,434,T
2023-04-04T14:55:55Z,mtu8p5sa,serial-reaction-time,1,P,2,1,46,4312,0,1,358.7000000476837,341,H
2023-04-04T14:55:56Z,mtu8p5sa,serial-reaction-time,1,R,2,1,47,4312,0,4,379.5,414,T
2023-04-04T14:55:56Z,mtu8p5sa,serial-reaction-time,1,P,2,1,48,4312,0,2,356.39999997615814,142,H
2023-04-04T14:55:57Z,mtu8p5sa,serial-reaction-time,1,R,2,1,49,4312,0,3,420.5,423,H
2023-04-04T14:55:57Z,mtu8p5sa,serial-reaction-time,1,P,2,1,50,4312,0,4,315.40000009536743,234,H
2023-04-04T14:55:58Z,mtu8p5sa,serial-reaction-time,1,R,2,1,51,4312,0,2,425.1999999284744,342,L
2023-04-04T14:55:58Z,mtu8p5sa,serial-reaction-time,1,P,2,1,52,4312,0,3,315.7000000476837,423,H
2023-04-04T14:55:58Z,mtu8p5sa,serial-reaction-time,1,R,2,1,53,4312,0,4,298.7000000476837,234,H
2023-04-04T14:55:59Z,mtu8p5sa,serial-reaction-time,1,P,2,1,54,4312,0,1,307.90000009536743,341,H
2023-04-04T14:55:59Z,mtu8p5sa,serial-reaction-time,1,R,2,1,55,4312,0,2,381.5,412,L
2023-04-04T14:56:00Z,mtu8p5sa,serial-reaction-time,1,P,2,1,56,4312,0,2,287.7999999523163,122,H
2023-04-04T14:56:00Z,mtu8p5sa,serial-reaction-time,1,R,2,1,57,4312,0,3,292.7999999523163,223,L
2023-04-04T14:56:01Z,mtu8p5sa,serial-reaction-time,1,P,2,1,58,4312,0,4,289.2999999523163,234,H
2023-04-04T14:56:01Z,mtu8p5sa,serial-reaction-time,1,R,2,1,59,4312,0,1,290.3000000715256,341,H
2023-04-04T14:56:02Z,mtu8p5sa,serial-reaction-time,1,P,2,1,60,4312,0,3,381.39999997615814,413,H
2023-04-04T14:56:02Z,mtu8p5sa,serial-reaction-time,1,R,2,1,61,4312,0,3,301.10000002384186,133,L
2023-04-04T14:56:02Z,mtu8p5sa,serial-reaction-time,1,P,2,1,62,4312,0,1,315,331,H
2023-04-04T14:56:03Z,mtu8p5sa,serial-reaction-time,1,R,2,1,63,4312,0,1,285.3000000715256,311,H
2023-04-04T14:56:03Z,mtu8p5sa,serial-reaction-time,1,P,2,1,64,4312,0,2,309,112,H
2023-04-04T14:56:04Z,mtu8p5sa,serial-reaction-time,1,R,2,1,65,4312,0,2,319.7000000476837,122,H
2023-04-04T14:56:04Z,mtu8p5sa,serial-reaction-time,1,P,2,1,66,4312,0,4,300.2000000476837,224,H
2023-04-04T14:56:05Z,mtu8p5sa,serial-reaction-time,1,R,2,1,67,4312,0,2,342.1999999284744,242,T
2023-04-04T14:56:05Z,mtu8p5sa,serial-reaction-time,1,P,2,1,68,4312,0,3,342,423,H
2023-04-04T14:56:05Z,mtu8p5sa,serial-reaction-time,NA,R,2,1,69,4312,0,2,309,232,T
2023-04-04T14:56:06Z,mtu8p5sa,serial-reaction-time,1,R,2,0,69,4312,0,2,604,232,T
2023-04-04T14:56:06Z,mtu8p5sa,serial-reaction-time,1,P,2,1,70,4312,0,1,396.60000002384186,321,H
2023-04-04T14:56:07Z,mtu8p5sa,serial-reaction-time,1,R,2,1,71,4312,0,1,247.80000007152557,211,L
2023-04-04T14:56:07Z,mtu8p5sa,serial-reaction-time,1,P,2,1,72,4312,0,2,361.6999999284744,112,H
2023-04-04T14:56:08Z,mtu8p5sa,serial-reaction-time,1,R,2,1,73,4312,0,4,338.7999999523163,124,L
2023-04-04T14:56:08Z,mtu8p5sa,serial-reaction-time,1,P,2,1,74,4312,0,4,223.60000002384183,244,H
2023-04-04T14:56:08Z,mtu8p5sa,serial-reaction-time,1,R,2,1,75,4312,0,1,371.89999997615814,441,L
2023-04-04T14:56:09Z,mtu8p5sa,serial-reaction-time,1,P,2,1,76,4312,0,3,379.5,413,H
2023-04-04T14:56:09Z,mtu8p5sa,serial-reaction-time,1,R,2,1,77,4312,0,2,328.7999999523163,132,H
2023-04-04T14:56:10Z,mtu8p5sa,serial-reaction-time,1,P,2,1,78,4312,0,1,334.89999997615814,321,H
2023-04-04T14:56:10Z,mtu8p5sa,serial-reaction-time,1,R,2,1,79,4312,0,4,316.3000000715256,214,H
2023-04-04T14:56:11Z,mtu8p5sa,serial-reaction-time,1,P,2,1,80,4312,0,2,341.09999990463257,142,H
2023-04-04T14:56:16Z,mtu8p5sa,html-keyboard-response,NA,NA,NA,NA,NA,NA,NA,NA,NA,NA,NA
2023-04-04T14:56:16Z,mtu8p5sa,html-keyboard-response,NA,NA,NA,NA,NA,NA,NA,NA,NA,NA,NA
2023-04-04T14:56:18Z,mtu8p5sa,serial-reaction-time,NA,R,3,1,1,4312,0,3,302.2999999523163,3,X
2023-04-04T14:56:18Z,mtu8p5sa,serial-reaction-time,1,R,3,0,1,4312,0,3,400.2999999523163,3,X
