datetime,id,trial_type,correct,p_or_r,block,first_response,trial_number,sequence,is_practice,correct_pos,cumulative_rt,actual_triplet,triplet_type
2022-12-02T18:25:48Z,c8cu3c3m,fullscreen,NA,NA,NA,NA,NA,NA,NA,NA,NA,NA,NA
2022-12-02T18:25:51Z,c8cu3c3m,html-keyboard-response,NA,NA,NA,NA,NA,NA,NA,NA,NA,NA,NA
2022-12-02T18:25:53Z,c8cu3c3m,serial-reaction-time,1,R,1,1,1,3214,0,1,425,1,X
2022-12-02T18:25:53Z,c8cu3c3m,serial-reaction-time,1,P,1,1,2,3214,0,3,323,13,X
2022-12-02T18:25:54Z,c8cu3c3m,serial-reaction-time,1,R,1,1,3,3214,0,2,323,132,L
2022-12-02T18:25:54Z,c8cu3c3m,serial-reaction-time,1,P,1,1,4,3214,0,2,247,322,H
2022-12-02T18:25:55Z,c8cu3c3m,serial-reaction-time,1,R,1,1,5,3214,0,1,366,221,H
2022-12-02T18:25:55Z,c8cu3c3m,serial-reaction-time,1,P,1,1,6,3214,0,1,274,211,H
2022-12-02T18:25:55Z,c8cu3c3m,serial-reaction-time,1,R,1,1,7,3214,0,3,277,113,L
2022-12-02T18:25:56Z,c8cu3c3m,serial-reaction-time,NA,P,1,1,8,3214,0,4,210,134,H
2022-12-02T18:25:56Z,c8cu3c3m,serial-reaction-time,1,P,1,0,8,3214,0,4,496,134,H
2022-12-02T18:25:57Z,c8cu3c3m,serial-reaction-time,1,R,1,1,9,3214,0,4,344,344,L
2022-12-02T18:25:57Z,c8cu3c3m,serial-reaction-time,1,P,1,1,10,3214,0,3,339,443,H
2022-12-02T18:25:58Z,c8cu3c3m,serial-reaction-time,1,R,1,1,11,3214,0,2,289,432,L
2022-12-02T18:25:58Z,c8cu3c3m,serial-reaction-time,1,P,1,1,12,3214,0,2,218,322,H
2022-12-02T18:25:58Z,c8cu3c3m,serial-reaction-time,1,R,1,1,13,3214,0,2,292,222,R
2022-12-02T18:25:59Z,c8cu3c3m,serial-reaction-time,1,P,1,1,14,3214,0,1,338,221,H
2022-12-02T18:25:59Z,c8cu3c3m,serial-reaction-time,1,R,1,1,15,3214,0,1,280,211,H
2022-12-02T18:26:00Z,c8cu3c3m,serial-reaction-time,NA,P,1,1,16,3214,0,4,284,114,H
2022-12-02T18:26:00Z,c8cu3c3m,serial-reaction-time,1,P,1,0,16,3214,0,4,629,114,H
2022-12-02T18:26:00Z,c8cu3c3m,serial-reaction-time,1,R,1,1,17,3214,0,4,298,144,H
2022-12-02T18:26:01Z,c8cu3c3m,serial-reaction-time,1,P,1,1,18,3214,0,3,358,443,H
2022-12-02T18:26:01Z,c8cu3c3m,serial-reaction-time,1,R,1,1,19,3214,0,4,299,434,T
2022-12-02T18:26:02Z,c8cu3c3m,serial-reaction-time,1,P,1,1,20,3214,0,2,342,342,H
2022-12-02T18:26:02Z,c8cu3c3m,serial-reaction-time,1,R,1,1,21,3214,0,3,292,423,H
2022-12-02T18:26:03Z,c8cu3c3m,serial-reaction-time,NA,P,1,1,22,3214,0,1,285,231,H
2022-12-02T18:26:03Z,c8cu3c3m,serial-reaction-time,1,P,1,0,22,3214,0,1,632,231,H
2022-12-02T18:26:03Z,c8cu3c3m,serial-reaction-time,1,R,1,1,23,3214,0,3,276,313,T
2022-12-02T18:26:04Z,c8cu3c3m,serial-reaction-time,1,P,1,1,24,3214,0,4,378,134,H
2022-12-02T18:26:04Z,c8cu3c3m,serial-reaction-time,1,R,1,1,25,3214,0,1,372,341,L
2022-12-02T18:26:05Z,c8cu3c3m,serial-reaction-time,1,P,1,1,26,3214,0,3,330,413,H
2022-12-02T18:26:05Z,c8cu3c3m,serial-reaction-time,1,R,1,1,27,3214,0,4,300,134,H
2022-12-02T18:26:06Z,c8cu3c3m,serial-reaction-time,1,P,1,1,28,3214,0,2,440,342,H
2022-12-02T18:26:06Z,c8cu3c3m,serial-reaction-time,NA,R,1,1,29,3214,0,2,192,422,L
2022-12-02T18:26:07Z,c8cu3c3m,serial-reaction-time,1,R,1,0,29,3214,0,2,511,422,L
2022-12-02T18:26:07Z,c8cu3c3m,serial-reaction-time,1,P,1,1,30,3214,0,1,343,221,H
2022-12-02T18:26:07Z,c8cu3c3m,serial-reaction-time,NA,R,1,1,31,3214,0,4,241,214,L
2022-12-02T18:26:08Z,c8cu3c3m,serial-reaction-time,1,R,1,0,31,3214,0,4,521,214,L
2022-12-02T18:26:08Z,c8cu3c3m,serial-reaction-time,1,P,1,1,32,3214,0,4,322,144,H
2022-12-02T18:26:09Z,c8cu3c3m,serial-reaction-time,1,R,1,1,33,3214,0,3,373,443,H
2022-12-02T18:26:09Z,c8cu3c3m,serial-reaction-time,1,P,1,1,34,3214,0,3,298,433,H
2022-12-02T18:26:10Z,c8cu3c3m,serial-reaction-time,1,R,1,1,35,3214,0,4,338,334,L
2022-12-02T18:26:10Z,c8cu3c3m,serial-reaction-time,1,P,1,1,36,3214,0,2,441,342,H
2022-12-02T18:26:11Z,c8cu3c3m,serial-reaction-time,1,R,1,1,37,3214,0,4,325,424,T
2022-12-02T18:26:11Z,c8cu3c3m,serial-reaction-time,1,P,1,1,38,3214,0,1,446,241,H
2022-12-02T18:26:12Z,c8cu3c3m,serial-reaction-time,NA,R,1,1,39,3214,0,4,302,414,T
2022-12-02T18:26:12Z,c8cu3c3m,serial-reaction-time,1,R,1,0,39,3214,0,4,619,414,T
2022-12-02T18:26:12Z,c8cu3c3m,serial-reaction-time,1,P,1,1,40,3214,0,4,297,144,H
2022-12-02T18:26:13Z,c8cu3c3m,serial-reaction-time,1,R,1,1,41,3214,0,2,350,442,L
2022-12-02T18:26:13Z,c8cu3c3m,serial-reaction-time,1,P,1,1,42,3214,0,3,356,423,H
2022-12-02T18:26:14Z,c8cu3c3m,serial-reaction-time,1,R,1,1,43,3214,0,2,286,232,T
2022-12-02T18:26:14Z,c8cu3c3m,serial-reaction-time,1,P,1,1,44,3214,0,2,326,322,H
2022-12-02T18:26:15Z,c8cu3c3m,serial-reaction-time,1,R,1,1,45,3214,0,2,266,222,R
2022-12-02T18:26:15Z,c8cu3c3m,serial-reaction-time,1,P,1,1,46,3214,0,1,362,221,H
2022-12-02T18:26:16Z,c8cu3c3m,serial-reaction-time,1,R,1,1,47,3214,0,2,268,212,T
2022-12-02T18:26:16Z,c8cu3c3m,serial-reaction-time,1,P,1,1,48,3214,0,4,332,124,H
2022-12-02T18:26:17Z,c8cu3c3m,serial-reaction-time,1,R,1,1,49,3214,0,4,344,244,L
2022-12-02T18:26:17Z,c8cu3c3m,serial-reaction-time,1,P,1,1,50,3214,0,3,379,443,H
2022-12-02T18:26:18Z,c8cu3c3m,serial-reaction-time,1,R,1,1,51,3214,0,4,403,434,T
2022-12-02T18:26:18Z,c8cu3c3m,serial-reaction-time,1,P,1,1,52,3214,0,2,380,342,H
2022-12-02T18:26:19Z,c8cu3c3m,serial-reaction-time,1,R,1,1,53,3214,0,1,297,421,L
2022-12-02T18:26:19Z,c8cu3c3m,serial-reaction-time,1,P,1,1,54,3214,0,1,323,211,H
2022-12-02T18:26:20Z,c8cu3c3m,serial-reaction-time,1,R,1,1,55,3214,0,1,354,111,R
2022-12-02T18:26:20Z,c8cu3c3m,serial-reaction-time,1,P,1,1,56,3214,0,4,323,114,H
2022-12-02T18:26:21Z,c8cu3c3m,serial-reaction-time,1,R,1,1,57,3214,0,1,351,141,T
2022-12-02T18:26:21Z,c8cu3c3m,serial-reaction-time,NA,P,1,1,58,3214,0,3,191,413,H
2022-12-02T18:26:21Z,c8cu3c3m,serial-reaction-time,1,P,1,0,58,3214,0,3,532,413,H
2022-12-02T18:26:22Z,c8cu3c3m,serial-reaction-time,1,R,1,1,59,3214,0,1,327,131,T
2022-12-02T18:26:22Z,c8cu3c3m,serial-reaction-time,1,P,1,1,60,3214,0,2,384,312,H
2022-12-02T18:26:23Z,c8cu3c3m,serial-reaction-time,1,R,1,1,61,3214,0,4,329,124,H
2022-12-02T18:26:23Z,c8cu3c3m,serial-reaction-time,NA,P,1,1,62,3214,0,1,286,241,H
2022-12-02T18:26:23Z,c8cu3c3m,serial-reaction-time,1,P,1,0,62,3214,0,1,600,241,H
2022-12-02T18:26:24Z,c8cu3c3m,serial-reaction-time,1,R,1,1,63,3214,0,2,388,412,L
2022-12-02T18:26:25Z,c8cu3c3m,serial-reaction-time,1,P,1,1,64,3214,0,4,429,124,H
2022-12-02T18:26:25Z,c8cu3c3m,serial-reaction-time,1,R,1,1,65,3214,0,2,314,242,T
2022-12-02T18:26:26Z,c8cu3c3m,serial-reaction-time,1,P,1,1,66,3214,0,3,533,423,H
2022-12-02T18:26:26Z,c8cu3c3m,serial-reaction-time,NA,R,1,1,67,3214,0,2,430,232,T
2022-12-02T18:26:27Z,c8cu3c3m,serial-reaction-time,1,R,1,0,67,3214,0,2,718,232,T
2022-12-02T18:26:27Z,c8cu3c3m,serial-reaction-time,1,P,1,1,68,3214,0,2,335,322,H
2022-12-02T18:26:27Z,c8cu3c3m,serial-reaction-time,1,R,1,1,69,3214,0,3,366,223,L
2022-12-02T18:26:28Z,c8cu3c3m,serial-reaction-time,1,P,1,1,70,3214,0,1,301,231,H
2022-12-02T18:26:28Z,c8cu3c3m,serial-reaction-time,1,R,1,1,71,3214,0,2,360,312,H
2022-12-02T18:26:29Z,c8cu3c3m,serial-reaction-time,1,P,1,1,72,3214,0,4,315,124,H
2022-12-02T18:26:29Z,c8cu3c3m,serial-reaction-time,1,R,1,1,73,3214,0,1,376,241,H
2022-12-02T18:26:30Z,c8cu3c3m,serial-reaction-time,1,P,1,1,74,3214,0,3,339,413,H
2022-12-02T18:26:30Z,c8cu3c3m,serial-reaction-time,1,R,1,1,75,3214,0,3,340,133,L
2022-12-02T18:26:31Z,c8cu3c3m,serial-reaction-time,1,P,1,1,76,3214,0,2,288,332,H
2022-12-02T18:26:31Z,c8cu3c3m,serial-reaction-time,1,R,1,1,77,3214,0,4,314,324,L
2022-12-02T18:26:32Z,c8cu3c3m,serial-reaction-time,NA,P,1,1,78,3214,0,1,311,241,H
2022-12-02T18:26:32Z,c8cu3c3m,serial-reaction-time,1,P,1,0,78,3214,0,1,655,241,H
2022-12-02T18:26:33Z,c8cu3c3m,serial-reaction-time,1,R,1,1,79,3214,0,3,315,413,H
2022-12-02T18:26:33Z,c8cu3c3m,serial-reaction-time,1,P,1,1,80,3214,0,4,286,134,H
2022-12-02T18:26:38Z,c8cu3c3m,html-keyboard-response,NA,NA,NA,NA,NA,NA,NA,NA,NA,NA,NA
2022-12-02T18:26:54Z,c8cu3c3m,html-keyboard-response,NA,NA,NA,NA,NA,NA,NA,NA,NA,NA,NA
2022-12-02T18:26:56Z,c8cu3c3m,serial-reaction-time,1,R,2,1,1,3214,0,1,375,1,X
2022-12-02T18:26:56Z,c8cu3c3m,serial-reaction-time,1,P,2,1,2,3214,0,3,323,13,X
2022-12-02T18:26:56Z,c8cu3c3m,serial-reaction-time,1,R,2,1,3,3214,0,3,285,133,L
2022-12-02T18:26:57Z,c8cu3c3m,serial-reaction-time,1,P,2,1,4,3214,0,2,316,332,H
2022-12-02T18:26:57Z,c8cu3c3m,serial-reaction-time,1,R,2,1,5,3214,0,3,343,323,T
2022-12-02T18:26:58Z,c8cu3c3m,serial-reaction-time,1,P,2,1,6,3214,0,1,325,231,H
2022-12-02T18:26:58Z,c8cu3c3m,serial-reaction-time,1,R,2,1,7,3214,0,1,299,311,L
2022-12-02T18:26:59Z,c8cu3c3m,serial-reaction-time,1,P,2,1,8,3214,0,4,300,114,H
2022-12-02T18:26:59Z,c8cu3c3m,serial-reaction-time,1,R,2,1,9,3214,0,3,371,143,L
2022-12-02T18:27:00Z,c8cu3c3m,serial-reaction-time,1,P,2,1,10,3214,0,3,273,433,H
2022-12-02T18:27:00Z,c8cu3c3m,serial-reaction-time,1,R,2,1,11,3214,0,3,286,333,R
2022-12-02T18:27:01Z,c8cu3c3m,serial-reaction-time,1,P,2,1,12,3214,0,2,492,332,H
2022-12-02T18:27:01Z,c8cu3c3m,serial-reaction-time,1,R,2,1,13,3214,0,4,360,324,L
2022-12-02T18:27:02Z,c8cu3c3m,serial-reaction-time,1,P,2,1,14,3214,0,1,326,241,H
2022-12-02T18:27:02Z,c8cu3c3m,serial-reaction-time,1,R,2,1,15,3214,0,1,269,411,L
2022-12-02T18:27:03Z,c8cu3c3m,serial-reaction-time,1,P,2,1,16,3214,0,4,393,114,H
2022-12-02T18:27:03Z,c8cu3c3m,serial-reaction-time,1,R,2,1,17,3214,0,2,524,142,L
2022-12-02T18:27:04Z,c8cu3c3m,serial-reaction-time,1,P,2,1,18,3214,0,3,334,423,H
2022-12-02T18:27:04Z,c8cu3c3m,serial-reaction-time,1,R,2,1,19,3214,0,3,316,233,L
2022-12-02T18:27:05Z,c8cu3c3m,serial-reaction-time,1,P,2,1,20,3214,0,2,392,332,H
2022-12-02T18:27:05Z,c8cu3c3m,serial-reaction-time,1,R,2,1,21,3214,0,2,285,322,H
2022-12-02T18:27:06Z,c8cu3c3m,serial-reaction-time,1,P,2,1,22,3214,0,1,331,221,H
2022-12-02T18:27:06Z,c8cu3c3m,serial-reaction-time,1,R,2,1,23,3214,0,2,400,212,T
2022-12-02T18:27:07Z,c8cu3c3m,serial-reaction-time,1,P,2,1,24,3214,0,4,595,124,H
2022-12-02T18:27:07Z,c8cu3c3m,serial-reaction-time,1,R,2,1,25,3214,0,2,310,242,T
2022-12-02T18:27:08Z,c8cu3c3m,serial-reaction-time,1,P,2,1,26,3214,0,3,317,423,H
2022-12-02T18:27:08Z,c8cu3c3m,serial-reaction-time,1,R,2,1,27,3214,0,2,266,232,T
2022-12-02T18:27:09Z,c8cu3c3m,serial-reaction-time,1,P,2,1,28,3214,0,2,316,322,H
2022-12-02T18:27:09Z,c8cu3c3m,serial-reaction-time,1,R,2,1,29,3214,0,2,350,222,R
2022-12-02T18:27:10Z,c8cu3c3m,serial-reaction-time,1,P,2,1,30,3214,0,1,380,221,H
2022-12-02T18:27:10Z,c8cu3c3m,serial-reaction-time,1,R,2,1,31,3214,0,1,280,211,H
2022-12-02T18:27:10Z,c8cu3c3m,serial-reaction-time,NA,P,2,1,32,3214,0,4,340,114,H
2022-12-02T18:27:11Z,c8cu3c3m,serial-reaction-time,1,P,2,0,32,3214,0,4,698,114,H
2022-12-02T18:27:11Z,c8cu3c3m,serial-reaction-time,1,R,2,1,33,3214,0,3,385,143,L
2022-12-02T18:27:12Z,c8cu3c3m,serial-reaction-time,1,P,2,1,34,3214,0,3,317,433,H
2022-12-02T18:27:12Z,c8cu3c3m,serial-reaction-time,1,R,2,1,35,3214,0,3,328,333,R
2022-12-02T18:27:13Z,c8cu3c3m,serial-reaction-time,1,P,2,1,36,3214,0,2,346,332,H
2022-12-02T18:27:13Z,c8cu3c3m,serial-reaction-time,1,R,2,1,37,3214,0,1,374,321,L
2022-12-02T18:27:14Z,c8cu3c3m,serial-reaction-time,1,P,2,1,38,3214,0,1,294,211,H
2022-12-02T18:27:14Z,c8cu3c3m,serial-reaction-time,1,R,2,1,39,3214,0,1,312,111,R
2022-12-02T18:27:15Z,c8cu3c3m,serial-reaction-time,1,P,2,1,40,3214,0,4,374,114,H
2022-12-02T18:27:15Z,c8cu3c3m,serial-reaction-time,1,R,2,1,41,3214,0,1,363,141,T
2022-12-02T18:27:16Z,c8cu3c3m,serial-reaction-time,1,P,2,1,42,3214,0,3,344,413,H
2022-12-02T18:27:16Z,c8cu3c3m,serial-reaction-time,1,R,2,1,43,3214,0,2,322,132,L
2022-12-02T18:27:17Z,c8cu3c3m,serial-reaction-time,1,P,2,1,44,3214,0,2,276,322,H
2022-12-02T18:27:17Z,c8cu3c3m,serial-reaction-time,1,R,2,1,45,3214,0,2,306,222,R
2022-12-02T18:27:17Z,c8cu3c3m,serial-reaction-time,1,P,2,1,46,3214,0,1,358,221,H
2022-12-02T18:27:18Z,c8cu3c3m,serial-reaction-time,1,R,2,1,47,3214,0,3,341,213,L
2022-12-02T18:27:18Z,c8cu3c3m,serial-reaction-time,1,P,2,1,48,3214,0,4,355,134,H
2022-12-02T18:27:19Z,c8cu3c3m,serial-reaction-time,1,R,2,1,49,3214,0,2,303,342,H
2022-12-02T18:27:19Z,c8cu3c3m,serial-reaction-time,1,P,2,1,50,3214,0,3,397,423,H
2022-12-02T18:27:20Z,c8cu3c3m,serial-reaction-time,1,R,2,1,51,3214,0,1,421,231,H
2022-12-02T18:27:20Z,c8cu3c3m,serial-reaction-time,1,P,2,1,52,3214,0,2,394,312,H
2022-12-02T18:27:21Z,c8cu3c3m,serial-reaction-time,1,R,2,1,53,3214,0,3,321,123,L
2022-12-02T18:27:21Z,c8cu3c3m,serial-reaction-time,1,P,2,1,54,3214,0,1,364,231,H
2022-12-02T18:27:22Z,c8cu3c3m,serial-reaction-time,1,R,2,1,55,3214,0,1,331,311,L
2022-12-02T18:27:22Z,c8cu3c3m,serial-reaction-time,1,P,2,1,56,3214,0,4,317,114,H
2022-12-02T18:27:23Z,c8cu3c3m,serial-reaction-time,NA,R,2,1,57,3214,0,3,362,143,L
2022-12-02T18:27:23Z,c8cu3c3m,serial-reaction-time,1,R,2,0,57,3214,0,3,620,143,L
2022-12-02T18:27:24Z,c8cu3c3m,serial-reaction-time,1,P,2,1,58,3214,0,3,285,433,H
2022-12-02T18:27:24Z,c8cu3c3m,serial-reaction-time,1,R,2,1,59,3214,0,2,345,332,H
2022-12-02T18:27:25Z,c8cu3c3m,serial-reaction-time,1,P,2,1,60,3214,0,2,291,322,H
2022-12-02T18:27:25Z,c8cu3c3m,serial-reaction-time,1,R,2,1,61,3214,0,4,389,224,L
2022-12-02T18:27:26Z,c8cu3c3m,serial-reaction-time,1,P,2,1,62,3214,0,1,417,241,H
2022-12-02T18:27:26Z,c8cu3c3m,serial-reaction-time,NA,R,2,1,63,3214,0,4,322,414,T
2022-12-02T18:27:26Z,c8cu3c3m,serial-reaction-time,1,R,2,0,63,3214,0,4,637,414,T
2022-12-02T18:27:27Z,c8cu3c3m,serial-reaction-time,1,P,2,1,64,3214,0,4,265,144,H
2022-12-02T18:27:27Z,c8cu3c3m,serial-reaction-time,1,R,2,1,65,3214,0,1,317,441,L
2022-12-02T18:27:28Z,c8cu3c3m,serial-reaction-time,1,P,2,1,66,3214,0,3,345,413,H
2022-12-02T18:27:28Z,c8cu3c3m,serial-reaction-time,1,R,2,1,67,3214,0,2,299,132,L
2022-12-02T18:27:29Z,c8cu3c3m,serial-reaction-time,1,P,2,1,68,3214,0,2,298,322,H
2022-12-02T18:27:29Z,c8cu3c3m,serial-reaction-time,1,R,2,1,69,3214,0,2,315,222,R
2022-12-02T18:27:30Z,c8cu3c3m,serial-reaction-time,1,P,2,1,70,3214,0,1,340,221,H
2022-12-02T18:27:30Z,c8cu3c3m,serial-reaction-time,1,R,2,1,71,3214,0,1,260,211,H
2022-12-02T18:27:30Z,c8cu3c3m,serial-reaction-time,1,P,2,1,72,3214,0,4,343,114,H
2022-12-02T18:27:31Z,c8cu3c3m,serial-reaction-time,1,R,2,1,73,3214,0,4,316,144,H
2022-12-02T18:27:31Z,c8cu3c3m,serial-reaction-time,1,P,2,1,74,3214,0,3,338,443,H
2022-12-02T18:27:32Z,c8cu3c3m,serial-reaction-time,NA,R,2,1,75,3214,0,1,337,431,L
2022-12-02T18:27:32Z,c8cu3c3m,serial-reaction-time,1,R,2,0,75,3214,0,1,682,431,L
2022-12-02T18:27:33Z,c8cu3c3m,serial-reaction-time,NA,P,2,1,76,3214,0,2,281,312,H
2022-12-02T18:27:33Z,c8cu3c3m,serial-reaction-time,1,P,2,0,76,3214,0,2,378,312,H
2022-12-02T18:27:33Z,c8cu3c3m,serial-reaction-time,1,R,2,1,77,3214,0,4,331,124,H
2022-12-02T18:27:34Z,c8cu3c3m,serial-reaction-time,1,P,2,1,78,3214,0,1,385,241,H
2022-12-02T18:27:34Z,c8cu3c3m,serial-reaction-time,1,R,2,1,79,3214,0,2,418,412,L
2022-12-02T18:27:35Z,c8cu3c3m,serial-reaction-time,NA,P,2,1,80,3214,0,4,289,124,H
2022-12-02T18:27:35Z,c8cu3c3m,serial-reaction-time,1,P,2,0,80,3214,0,4,345,124,H
2022-12-02T18:27:40Z,c8cu3c3m,html-keyboard-response,NA,NA,NA,NA,NA,NA,NA,NA,NA,NA,NA
2022-12-02T18:27:40Z,c8cu3c3m,html-keyboard-response,NA,NA,NA,NA,NA,NA,NA,NA,NA,NA,NA
2022-12-02T18:27:42Z,c8cu3c3m,serial-reaction-time,1,R,3,1,1,3214,0,3,504,3,X
2022-12-02T18:27:42Z,c8cu3c3m,serial-reaction-time,1,P,3,1,2,3214,0,3,316,33,X
2022-12-02T18:27:43Z,c8cu3c3m,serial-reaction-time,1,R,3,1,3,3214,0,3,292,333,R
2022-12-02T18:27:43Z,c8cu3c3m,serial-reaction-time,1,P,3,1,4,3214,0,2,475,332,H
2022-12-02T18:27:44Z,c8cu3c3m,serial-reaction-time,NA,R,3,1,5,3214,0,3,371,323,T
2022-12-02T18:27:44Z,c8cu3c3m,serial-reaction-time,1,R,3,0,5,3214,0,3,792,323,T
2022-12-02T18:27:45Z,c8cu3c3m,serial-reaction-time,1,P,3,1,6,3214,0,1,408,231,H
2022-12-02T18:27:45Z,c8cu3c3m,serial-reaction-time,1,R,3,1,7,3214,0,1,277,311,L
2022-12-02T18:27:46Z,c8cu3c3m,serial-reaction-time,1,P,3,1,8,3214,0,4,344,114,H
2022-12-02T18:27:46Z,c8cu3c3m,serial-reaction-time,1,R,3,1,9,3214,0,4,301,144,H
2022-12-02T18:27:47Z,c8cu3c3m,serial-reaction-time,1,P,3,1,10,3214,0,3,325,443,H
2022-12-02T18:27:47Z,c8cu3c3m,serial-reaction-time,1,R,3,1,11,3214,0,4,371,434,T
2022-12-02T18:27:48Z,c8cu3c3m,serial-reaction-time,NA,P,3,1,12,3214,0,2,288,342,H
2022-12-02T18:27:48Z,c8cu3c3m,serial-reaction-time,1,P,3,0,12,3214,0,2,335,342,H
2022-12-02T18:27:48Z,c8cu3c3m,serial-reaction-time,1,R,3,1,13,3214,0,3,392,423,H
2022-12-02T18:27:49Z,c8cu3c3m,serial-reaction-time,1,P,3,1,14,3214,0,1,296,231,H
2022-12-02T18:27:49Z,c8cu3c3m,serial-reaction-time,1,R,3,1,15,3214,0,3,294,313,T
2022-12-02T18:27:50Z,c8cu3c3m,serial-reaction-time,1,P,3,1,16,3214,0,4,322,134,H
2022-12-02T18:27:50Z,c8cu3c3m,serial-reaction-time,1,R,3,1,17,3214,0,2,317,342,H
2022-12-02T18:27:50Z,c8cu3c3m,serial-reaction-time,1,P,3,1,18,3214,0,3,322,423,H
2022-12-02T18:27:51Z,c8cu3c3m,serial-reaction-time,1,R,3,1,19,3214,0,1,333,231,H
2022-12-02T18:27:51Z,c8cu3c3m,serial-reaction-time,1,P,3,1,20,3214,0,2,341,312,H
2022-12-02T18:27:52Z,c8cu3c3m,serial-reaction-time,1,R,3,1,21,3214,0,3,329,123,L
2022-12-02T18:27:52Z,c8cu3c3m,serial-reaction-time,1,P,3,1,22,3214,0,1,325,231,H
2022-12-02T18:27:53Z,c8cu3c3m,serial-reaction-time,1,R,3,1,23,3214,0,2,328,312,H
2022-12-02T18:27:53Z,c8cu3c3m,serial-reaction-time,NA,P,3,1,24,3214,0,4,277,124,H
2022-12-02T18:27:54Z,c8cu3c3m,serial-reaction-time,1,P,3,0,24,3214,0,4,673,124,H
2022-12-02T18:27:54Z,c8cu3c3m,serial-reaction-time,NA,R,3,1,25,3214,0,2,378,242,T
2022-12-02T18:27:54Z,c8cu3c3m,serial-reaction-time,1,R,3,0,25,3214,0,2,671,242,T
2022-12-02T18:27:55Z,c8cu3c3m,serial-reaction-time,1,P,3,1,26,3214,0,3,379,423,H
2022-12-02T18:27:55Z,c8cu3c3m,serial-reaction-time,NA,R,3,1,27,3214,0,2,265,232,T
2022-12-02T18:27:56Z,c8cu3c3m,serial-reaction-time,1,R,3,0,27,3214,0,2,640,232,T
2022-12-02T18:27:56Z,c8cu3c3m,serial-reaction-time,1,P,3,1,28,3214,0,2,355,322,H
2022-12-02T18:27:57Z,c8cu3c3m,serial-reaction-time,1,R,3,1,29,3214,0,4,386,224,L
2022-12-02T18:27:57Z,c8cu3c3m,serial-reaction-time,NA,P,3,1,30,3214,0,1,331,241,H
2022-12-02T18:27:58Z,c8cu3c3m,serial-reaction-time,NA,P,3,0,30,3214,0,1,1519,241,H
2022-12-02T18:27:58Z,c8cu3c3m,serial-reaction-time,1,P,3,0,30,3214,0,1,1535,241,H
2022-12-02T18:27:59Z,c8cu3c3m,serial-reaction-time,1,R,3,1,31,3214,0,3,418,413,H
2022-12-02T18:27:59Z,c8cu3c3m,serial-reaction-time,1,P,3,1,32,3214,0,4,344,134,H
2022-12-02T18:28:00Z,c8cu3c3m,serial-reaction-time,1,R,3,1,33,3214,0,2,311,342,H
2022-12-02T18:28:00Z,c8cu3c3m,serial-reaction-time,1,P,3,1,34,3214,0,3,340,423,H
2022-12-02T18:28:01Z,c8cu3c3m,serial-reaction-time,1,R,3,1,35,3214,0,2,258,232,T
2022-12-02T18:28:01Z,c8cu3c3m,serial-reaction-time,1,P,3,1,36,3214,0,2,406,322,H
2022-12-02T18:28:02Z,c8cu3c3m,serial-reaction-time,1,R,3,1,37,3214,0,4,319,224,L
2022-12-02T18:28:02Z,c8cu3c3m,serial-reaction-time,1,P,3,1,38,3214,0,1,321,241,H
2022-12-02T18:28:03Z,c8cu3c3m,serial-reaction-time,NA,R,3,1,39,3214,0,4,316,414,T
2022-12-02T18:28:03Z,c8cu3c3m,serial-reaction-time,1,R,3,0,39,3214,0,4,692,414,T
2022-12-02T18:28:04Z,c8cu3c3m,serial-reaction-time,1,P,3,1,40,3214,0,4,371,144,H
2022-12-02T18:28:04Z,c8cu3c3m,serial-reaction-time,1,R,3,1,41,3214,0,3,390,443,H
2022-12-02T18:28:05Z,c8cu3c3m,serial-reaction-time,1,P,3,1,42,3214,0,3,284,433,H
2022-12-02T18:28:05Z,c8cu3c3m,serial-reaction-time,1,R,3,1,43,3214,0,3,334,333,R
2022-12-02T18:28:06Z,c8cu3c3m,serial-reaction-time,1,P,3,1,44,3214,0,2,423,332,H
2022-12-02T18:28:06Z,c8cu3c3m,serial-reaction-time,1,R,3,1,45,3214,0,3,424,323,T
2022-12-02T18:28:07Z,c8cu3c3m,serial-reaction-time,NA,P,3,1,46,3214,0,1,271,231,H
2022-12-02T18:28:07Z,c8cu3c3m,serial-reaction-time,1,P,3,0,46,3214,0,1,641,231,H
2022-12-02T18:28:08Z,c8cu3c3m,serial-reaction-time,1,R,3,1,47,3214,0,2,544,312,H
2022-12-02T18:28:08Z,c8cu3c3m,serial-reaction-time,1,P,3,1,48,3214,0,4,350,124,H
2022-12-02T18:28:09Z,c8cu3c3m,serial-reaction-time,1,R,3,1,49,3214,0,2,293,242,T
2022-12-02T18:28:09Z,c8cu3c3m,serial-reaction-time,1,P,3,1,50,3214,0,3,349,423,H
2022-12-02T18:28:09Z,c8cu3c3m,serial-reaction-time,1,R,3,1,51,3214,0,2,293,232,T
2022-12-02T18:28:10Z,c8cu3c3m,serial-reaction-time,1,P,3,1,52,3214,0,2,398,322,H
2022-12-02T18:28:11Z,c8cu3c3m,serial-reaction-time,1,R,3,1,53,3214,0,3,389,223,L
2022-12-02T18:28:11Z,c8cu3c3m,serial-reaction-time,1,P,3,1,54,3214,0,1,539,231,H
2022-12-02T18:28:12Z,c8cu3c3m,serial-reaction-time,1,R,3,1,55,3214,0,1,316,311,L
2022-12-02T18:28:12Z,c8cu3c3m,serial-reaction-time,NA,P,3,1,56,3214,0,4,380,114,H
2022-12-02T18:28:13Z,c8cu3c3m,serial-reaction-time,1,P,3,0,56,3214,0,4,897,114,H
2022-12-02T18:28:13Z,c8cu3c3m,serial-reaction-time,1,R,3,1,57,3214,0,1,425,141,T
2022-12-02T18:28:14Z,c8cu3c3m,serial-reaction-time,1,P,3,1,58,3214,0,3,357,413,H
2022-12-02T18:28:14Z,c8cu3c3m,serial-reaction-time,1,R,3,1,59,3214,0,1,316,131,T
2022-12-02T18:28:15Z,c8cu3c3m,serial-reaction-time,1,P,3,1,60,3214,0,2,392,312,H
2022-12-02T18:28:15Z,c8cu3c3m,serial-reaction-time,1,R,3,1,61,3214,0,3,382,123,L
2022-12-02T18:28:16Z,c8cu3c3m,serial-reaction-time,1,P,3,1,62,3214,0,1,336,231,H
2022-12-02T18:28:16Z,c8cu3c3m,serial-reaction-time,1,R,3,1,63,3214,0,4,433,314,L
2022-12-02T18:28:17Z,c8cu3c3m,serial-reaction-time,1,P,3,1,64,3214,0,4,305,144,H
2022-12-02T18:28:17Z,c8cu3c3m,serial-reaction-time,1,R,3,1,65,3214,0,4,381,444,R
2022-12-02T18:28:18Z,c8cu3c3m,serial-reaction-time,1,P,3,1,66,3214,0,3,461,443,H
2022-12-02T18:28:18Z,c8cu3c3m,serial-reaction-time,1,R,3,1,67,3214,0,1,377,431,L
2022-12-02T18:28:19Z,c8cu3c3m,serial-reaction-time,1,P,3,1,68,3214,0,2,408,312,H
2022-12-02T18:28:19Z,c8cu3c3m,serial-reaction-time,1,R,3,1,69,3214,0,3,387,123,L
2022-12-02T18:28:20Z,c8cu3c3m,serial-reaction-time,1,P,3,1,70,3214,0,1,340,231,H
2022-12-02T18:28:20Z,c8cu3c3m,serial-reaction-time,1,R,3,1,71,3214,0,2,363,312,H
2022-12-02T18:28:21Z,c8cu3c3m,serial-reaction-time,1,P,3,1,72,3214,0,4,377,124,H
2022-12-02T18:28:22Z,c8cu3c3m,serial-reaction-time,1,R,3,1,73,3214,0,1,477,241,H
2022-12-02T18:28:22Z,c8cu3c3m,serial-reaction-time,1,P,3,1,74,3214,0,3,322,413,H
2022-12-02T18:28:22Z,c8cu3c3m,serial-reaction-time,1,R,3,1,75,3214,0,2,298,132,L
2022-12-02T18:28:23Z,c8cu3c3m,serial-reaction-time,1,P,3,1,76,3214,0,2,287,322,H
2022-12-02T18:28:23Z,c8cu3c3m,serial-reaction-time,1,R,3,1,77,3214,0,4,326,224,L
2022-12-02T18:28:24Z,c8cu3c3m,serial-reaction-time,1,P,3,1,78,3214,0,1,312,241,H
2022-12-02T18:28:24Z,c8cu3c3m,serial-reaction-time,1,R,3,1,79,3214,0,3,318,413,H
2022-12-02T18:28:25Z,c8cu3c3m,serial-reaction-time,1,P,3,1,80,3214,0,4,374,134,H
2022-12-02T18:28:30Z,c8cu3c3m,html-keyboard-response,NA,NA,NA,NA,NA,NA,NA,NA,NA,NA,NA
2022-12-02T18:28:31Z,c8cu3c3m,html-keyboard-response,NA,NA,NA,NA,NA,NA,NA,NA,NA,NA,NA
2022-12-02T18:28:33Z,c8cu3c3m,serial-reaction-time,1,R,4,1,1,3214,0,2,592,2,X
2022-12-02T18:28:33Z,c8cu3c3m,serial-reaction-time,1,P,4,1,2,3214,0,3,341,23,X
2022-12-02T18:28:34Z,c8cu3c3m,serial-reaction-time,1,R,4,1,3,3214,0,1,289,231,H
2022-12-02T18:28:34Z,c8cu3c3m,serial-reaction-time,1,P,4,1,4,3214,0,2,323,312,H
2022-12-02T18:28:35Z,c8cu3c3m,serial-reaction-time,1,R,4,1,5,3214,0,1,322,121,T
2022-12-02T18:28:35Z,c8cu3c3m,serial-reaction-time,1,P,4,1,6,3214,0,1,367,211,H
2022-12-02T18:28:36Z,c8cu3c3m,serial-reaction-time,1,R,4,1,7,3214,0,3,307,113,L
2022-12-02T18:28:36Z,c8cu3c3m,serial-reaction-time,1,P,4,1,8,3214,0,4,376,134,H
2022-12-02T18:28:37Z,c8cu3c3m,serial-reaction-time,1,R,4,1,9,3214,0,3,572,343,T
2022-12-02T18:28:37Z,c8cu3c3m,serial-reaction-time,1,P,4,1,10,3214,0,3,271,433,H
2022-12-02T18:28:38Z,c8cu3c3m,serial-reaction-time,1,R,4,1,11,3214,0,3,303,333,R
2022-12-02T18:28:38Z,c8cu3c3m,serial-reaction-time,1,P,4,1,12,3214,0,2,335,332,H
2022-12-02T18:28:39Z,c8cu3c3m,serial-reaction-time,1,R,4,1,13,3214,0,4,315,324,L
2022-12-02T18:28:39Z,c8cu3c3m,serial-reaction-time,1,P,4,1,14,3214,0,1,431,241,H
2022-12-02T18:28:40Z,c8cu3c3m,serial-reaction-time,1,R,4,1,15,3214,0,4,503,414,T
2022-12-02T18:28:40Z,c8cu3c3m,serial-reaction-time,1,P,4,1,16,3214,0,4,360,144,H
2022-12-02T18:28:41Z,c8cu3c3m,serial-reaction-time,1,R,4,1,17,3214,0,3,433,443,H
2022-12-02T18:28:41Z,c8cu3c3m,serial-reaction-time,1,P,4,1,18,3214,0,3,313,433,H
2022-12-02T18:28:42Z,c8cu3c3m,serial-reaction-time,1,R,4,1,19,3214,0,1,304,331,L
2022-12-02T18:28:42Z,c8cu3c3m,serial-reaction-time,1,P,4,1,20,3214,0,2,398,312,H
2022-12-02T18:28:43Z,c8cu3c3m,serial-reaction-time,1,R,4,1,21,3214,0,4,352,124,H
2022-12-02T18:28:44Z,c8cu3c3m,serial-reaction-time,1,P,4,1,22,3214,0,1,509,241,H
2022-12-02T18:28:44Z,c8cu3c3m,serial-reaction-time,1,R,4,1,23,3214,0,4,445,414,T
2022-12-02T18:28:45Z,c8cu3c3m,serial-reaction-time,1,P,4,1,24,3214,0,4,320,144,H
2022-12-02T18:28:45Z,c8cu3c3m,serial-reaction-time,1,R,4,1,25,3214,0,3,395,443,H
2022-12-02T18:28:46Z,c8cu3c3m,serial-reaction-time,1,P,4,1,26,3214,0,3,297,433,H
2022-12-02T18:28:46Z,c8cu3c3m,serial-reaction-time,1,R,4,1,27,3214,0,4,298,334,L
2022-12-02T18:28:47Z,c8cu3c3m,serial-reaction-time,1,P,4,1,28,3214,0,2,411,342,H
2022-12-02T18:28:47Z,c8cu3c3m,serial-reaction-time,1,R,4,1,29,3214,0,1,279,421,L
2022-12-02T18:28:47Z,c8cu3c3m,serial-reaction-time,1,P,4,1,30,3214,0,1,349,211,H
2022-12-02T18:28:48Z,c8cu3c3m,serial-reaction-time,1,R,4,1,31,3214,0,1,345,111,R
2022-12-02T18:28:48Z,c8cu3c3m,serial-reaction-time,1,P,4,1,32,3214,0,4,296,114,H
2022-12-02T18:28:49Z,c8cu3c3m,serial-reaction-time,1,R,4,1,33,3214,0,1,404,141,T
2022-12-02T18:28:49Z,c8cu3c3m,serial-reaction-time,1,P,4,1,34,3214,0,3,404,413,H
2022-12-02T18:28:50Z,c8cu3c3m,serial-reaction-time,1,R,4,1,35,3214,0,3,460,133,L
2022-12-02T18:28:51Z,c8cu3c3m,serial-reaction-time,NA,P,4,1,36,3214,0,2,365,332,H
2022-12-02T18:28:51Z,c8cu3c3m,serial-reaction-time,1,P,4,0,36,3214,0,2,911,332,H
2022-12-02T18:28:52Z,c8cu3c3m,serial-reaction-time,1,R,4,1,37,3214,0,1,352,321,L
2022-12-02T18:28:52Z,c8cu3c3m,serial-reaction-time,1,P,4,1,38,3214,0,1,337,211,H
2022-12-02T18:28:53Z,c8cu3c3m,serial-reaction-time,1,R,4,1,39,3214,0,1,407,111,R
2022-12-02T18:28:53Z,c8cu3c3m,serial-reaction-time,1,P,4,1,40,3214,0,4,289,114,H
2022-12-02T18:28:54Z,c8cu3c3m,serial-reaction-time,1,R,4,1,41,3214,0,3,354,143,L
2022-12-02T18:28:54Z,c8cu3c3m,serial-reaction-time,1,P,4,1,42,3214,0,3,338,433,H
2022-12-02T18:28:55Z,c8cu3c3m,serial-reaction-time,1,R,4,1,43,3214,0,1,349,331,L
2022-12-02T18:28:55Z,c8cu3c3m,serial-reaction-time,1,P,4,1,44,3214,0,2,488,312,H
2022-12-02T18:28:56Z,c8cu3c3m,serial-reaction-time,1,R,4,1,45,3214,0,3,490,123,L
2022-12-02T18:28:56Z,c8cu3c3m,serial-reaction-time,1,P,4,1,46,3214,0,1,341,231,H
2022-12-02T18:28:57Z,c8cu3c3m,serial-reaction-time,1,R,4,1,47,3214,0,2,377,312,H
2022-12-02T18:28:57Z,c8cu3c3m,serial-reaction-time,1,P,4,1,48,3214,0,4,436,124,H
2022-12-02T18:28:58Z,c8cu3c3m,serial-reaction-time,1,R,4,1,49,3214,0,3,413,243,L
2022-12-02T18:28:58Z,c8cu3c3m,serial-reaction-time,1,P,4,1,50,3214,0,3,325,433,H
2022-12-02T18:28:59Z,c8cu3c3m,serial-reaction-time,1,R,4,1,51,3214,0,1,332,331,L
2022-12-02T18:28:59Z,c8cu3c3m,serial-reaction-time,1,P,4,1,52,3214,0,2,446,312,H
2022-12-02T18:29:00Z,c8cu3c3m,serial-reaction-time,1,R,4,1,53,3214,0,3,427,123,L
2022-12-02T18:29:00Z,c8cu3c3m,serial-reaction-time,1,P,4,1,54,3214,0,1,355,231,H
2022-12-02T18:29:01Z,c8cu3c3m,serial-reaction-time,1,R,4,1,55,3214,0,2,466,312,H
2022-12-02T18:29:02Z,c8cu3c3m,serial-reaction-time,1,P,4,1,56,3214,0,4,381,124,H
2022-12-02T18:29:02Z,c8cu3c3m,serial-reaction-time,NA,R,4,1,57,3214,0,3,376,243,L
2022-12-02T18:29:02Z,c8cu3c3m,serial-reaction-time,1,R,4,0,57,3214,0,3,736,243,L
2022-12-02T18:29:03Z,c8cu3c3m,serial-reaction-time,1,P,4,1,58,3214,0,3,376,433,H
2022-12-02T18:29:03Z,c8cu3c3m,serial-reaction-time,1,R,4,1,59,3214,0,3,331,333,R
2022-12-02T18:29:04Z,c8cu3c3m,serial-reaction-time,1,P,4,1,60,3214,0,2,391,332,H
2022-12-02T18:29:04Z,c8cu3c3m,serial-reaction-time,1,R,4,1,61,3214,0,1,333,321,L
2022-12-02T18:29:05Z,c8cu3c3m,serial-reaction-time,1,P,4,1,62,3214,0,1,375,211,H
2022-12-02T18:29:05Z,c8cu3c3m,serial-reaction-time,1,R,4,1,63,3214,0,3,351,113,L
2022-12-02T18:29:06Z,c8cu3c3m,serial-reaction-time,NA,P,4,1,64,3214,0,4,228,134,H
2022-12-02T18:29:06Z,c8cu3c3m,serial-reaction-time,1,P,4,0,64,3214,0,4,603,134,H
2022-12-02T18:29:07Z,c8cu3c3m,serial-reaction-time,1,R,4,1,65,3214,0,1,359,341,L
2022-12-02T18:29:07Z,c8cu3c3m,serial-reaction-time,1,P,4,1,66,3214,0,3,350,413,H
2022-12-02T18:29:08Z,c8cu3c3m,serial-reaction-time,1,R,4,1,67,3214,0,1,349,131,T
2022-12-02T18:29:08Z,c8cu3c3m,serial-reaction-time,1,P,4,1,68,3214,0,2,455,312,H
2022-12-02T18:29:09Z,c8cu3c3m,serial-reaction-time,1,R,4,1,69,3214,0,3,351,123,L
2022-12-02T18:29:09Z,c8cu3c3m,serial-reaction-time,1,P,4,1,70,3214,0,1,295,231,H
2022-12-02T18:29:10Z,c8cu3c3m,serial-reaction-time,1,R,4,1,71,3214,0,1,359,311,L
2022-12-02T18:29:10Z,c8cu3c3m,serial-reaction-time,1,P,4,1,72,3214,0,4,337,114,H
2022-12-02T18:29:11Z,c8cu3c3m,serial-reaction-time,1,R,4,1,73,3214,0,2,349,142,L
2022-12-02T18:29:11Z,c8cu3c3m,serial-reaction-time,1,P,4,1,74,3214,0,3,445,423,H
2022-12-02T18:29:12Z,c8cu3c3m,serial-reaction-time,1,R,4,1,75,3214,0,3,356,233,L
2022-12-02T18:29:12Z,c8cu3c3m,serial-reaction-time,1,P,4,1,76,3214,0,2,451,332,H
2022-12-02T18:29:13Z,c8cu3c3m,serial-reaction-time,1,R,4,1,77,3214,0,4,346,324,L
2022-12-02T18:29:13Z,c8cu3c3m,serial-reaction-time,1,P,4,1,78,3214,0,1,476,241,H
2022-12-02T18:29:14Z,c8cu3c3m,serial-reaction-time,1,R,4,1,79,3214,0,4,455,414,T
2022-12-02T18:29:15Z,c8cu3c3m,serial-reaction-time,1,P,4,1,80,3214,0,4,360,144,H
2022-12-02T18:29:20Z,c8cu3c3m,html-keyboard-response,NA,NA,NA,NA,NA,NA,NA,NA,NA,NA,NA
2022-12-02T18:29:21Z,c8cu3c3m,html-keyboard-response,NA,NA,NA,NA,NA,NA,NA,NA,NA,NA,NA
2022-12-02T18:29:22Z,c8cu3c3m,serial-reaction-time,1,R,5,1,1,3214,0,4,353,4,X
2022-12-02T18:29:23Z,c8cu3c3m,serial-reaction-time,1,P,5,1,2,3214,0,3,326,43,X
2022-12-02T18:29:23Z,c8cu3c3m,serial-reaction-time,1,R,5,1,3,3214,0,2,470,432,L
2022-12-02T18:29:24Z,c8cu3c3m,serial-reaction-time,1,P,5,1,4,3214,0,2,323,322,H
2022-12-02T18:29:24Z,c8cu3c3m,serial-reaction-time,1,R,5,1,5,3214,0,1,386,221,H
2022-12-02T18:29:25Z,c8cu3c3m,serial-reaction-time,1,P,5,1,6,3214,0,1,264,211,H
2022-12-02T18:29:25Z,c8cu3c3m,serial-reaction-time,1,R,5,1,7,3214,0,4,318,114,H
2022-12-02T18:29:26Z,c8cu3c3m,serial-reaction-time,1,P,5,1,8,3214,0,4,297,144,H
2022-12-02T18:29:26Z,c8cu3c3m,serial-reaction-time,1,R,5,1,9,3214,0,2,308,442,L
2022-12-02T18:29:27Z,c8cu3c3m,serial-reaction-time,1,P,5,1,10,3214,0,3,438,423,H
2022-12-02T18:29:27Z,c8cu3c3m,serial-reaction-time,1,R,5,1,11,3214,0,1,338,231,H
2022-12-02T18:29:28Z,c8cu3c3m,serial-reaction-time,1,P,5,1,12,3214,0,2,383,312,H
2022-12-02T18:29:28Z,c8cu3c3m,serial-reaction-time,1,R,5,1,13,3214,0,2,302,122,L
2022-12-02T18:29:29Z,c8cu3c3m,serial-reaction-time,1,P,5,1,14,3214,0,1,492,221,H
2022-12-02T18:29:29Z,c8cu3c3m,serial-reaction-time,NA,R,5,1,15,3214,0,4,205,214,L
2022-12-02T18:29:29Z,c8cu3c3m,serial-reaction-time,1,R,5,0,15,3214,0,4,491,214,L
2022-12-02T18:29:30Z,c8cu3c3m,serial-reaction-time,1,P,5,1,16,3214,0,4,277,144,H
2022-12-02T18:29:30Z,c8cu3c3m,serial-reaction-time,1,R,5,1,17,3214,0,2,265,442,L
2022-12-02T18:29:31Z,c8cu3c3m,serial-reaction-time,1,P,5,1,18,3214,0,3,341,423,H
2022-12-02T18:29:31Z,c8cu3c3m,serial-reaction-time,1,R,5,1,19,3214,0,1,354,231,H
2022-12-02T18:29:32Z,c8cu3c3m,serial-reaction-time,1,P,5,1,20,3214,0,2,416,312,H
2022-12-02T18:29:32Z,c8cu3c3m,serial-reaction-time,1,R,5,1,21,3214,0,3,522,123,L
2022-12-02T18:29:33Z,c8cu3c3m,serial-reaction-time,1,P,5,1,22,3214,0,1,295,231,H
2022-12-02T18:29:33Z,c8cu3c3m,serial-reaction-time,1,R,5,1,23,3214,0,1,296,311,L
2022-12-02T18:29:34Z,c8cu3c3m,serial-reaction-time,1,P,5,1,24,3214,0,4,284,114,H
2022-12-02T18:29:34Z,c8cu3c3m,serial-reaction-time,1,R,5,1,25,3214,0,2,330,142,L
2022-12-02T18:29:35Z,c8cu3c3m,serial-reaction-time,1,P,5,1,26,3214,0,3,418,423,H
2022-12-02T18:29:35Z,c8cu3c3m,serial-reaction-time,1,R,5,1,27,3214,0,1,250,231,H
2022-12-02T18:29:36Z,c8cu3c3m,serial-reaction-time,1,P,5,1,28,3214,0,2,412,312,H
2022-12-02T18:29:36Z,c8cu3c3m,serial-reaction-time,1,R,5,1,29,3214,0,4,341,124,H
2022-12-02T18:29:37Z,c8cu3c3m,serial-reaction-time,1,P,5,1,30,3214,0,1,398,241,H
2022-12-02T18:29:37Z,c8cu3c3m,serial-reaction-time,NA,R,5,1,31,3214,0,4,355,414,T
2022-12-02T18:29:37Z,c8cu3c3m,serial-reaction-time,1,R,5,0,31,3214,0,4,687,414,T
2022-12-02T18:29:38Z,c8cu3c3m,serial-reaction-time,1,P,5,1,32,3214,0,4,314,144,H
2022-12-02T18:29:38Z,c8cu3c3m,serial-reaction-time,1,R,5,1,33,3214,0,4,354,444,R
2022-12-02T18:29:39Z,c8cu3c3m,serial-reaction-time,1,P,5,1,34,3214,0,3,397,443,H
2022-12-02T18:29:39Z,c8cu3c3m,serial-reaction-time,1,R,5,1,35,3214,0,4,456,434,T
2022-12-02T18:29:40Z,c8cu3c3m,serial-reaction-time,1,P,5,1,36,3214,0,2,421,342,H
2022-12-02T18:29:40Z,c8cu3c3m,serial-reaction-time,1,R,5,1,37,3214,0,1,282,421,L
2022-12-02T18:29:41Z,c8cu3c3m,serial-reaction-time,1,P,5,1,38,3214,0,1,329,211,H
2022-12-02T18:29:41Z,c8cu3c3m,serial-reaction-time,1,R,5,1,39,3214,0,4,339,114,H
2022-12-02T18:29:42Z,c8cu3c3m,serial-reaction-time,1,P,5,1,40,3214,0,4,337,144,H
2022-12-02T18:29:42Z,c8cu3c3m,serial-reaction-time,1,R,5,1,41,3214,0,2,401,442,L
2022-12-02T18:29:43Z,c8cu3c3m,serial-reaction-time,1,P,5,1,42,3214,0,3,504,423,H
2022-12-02T18:29:44Z,c8cu3c3m,serial-reaction-time,1,R,5,1,43,3214,0,3,420,233,L
2022-12-02T18:29:44Z,c8cu3c3m,serial-reaction-time,NA,P,5,1,44,3214,0,2,270,332,H
2022-12-02T18:29:44Z,c8cu3c3m,serial-reaction-time,1,P,5,0,44,3214,0,2,589,332,H
2022-12-02T18:29:45Z,c8cu3c3m,serial-reaction-time,1,R,5,1,45,3214,0,1,324,321,L
2022-12-02T18:29:45Z,c8cu3c3m,serial-reaction-time,1,P,5,1,46,3214,0,1,291,211,H
2022-12-02T18:29:46Z,c8cu3c3m,serial-reaction-time,NA,R,5,1,47,3214,0,3,321,113,L
2022-12-02T18:29:46Z,c8cu3c3m,serial-reaction-time,1,R,5,0,47,3214,0,3,631,113,L
2022-12-02T18:29:46Z,c8cu3c3m,serial-reaction-time,1,P,5,1,48,3214,0,4,327,134,H
2022-12-02T18:29:47Z,c8cu3c3m,serial-reaction-time,1,R,5,1,49,3214,0,2,304,342,H
2022-12-02T18:29:47Z,c8cu3c3m,serial-reaction-time,NA,P,5,1,50,3214,0,3,336,423,H
2022-12-02T18:29:48Z,c8cu3c3m,serial-reaction-time,1,P,5,0,50,3214,0,3,661,423,H
2022-12-02T18:29:48Z,c8cu3c3m,serial-reaction-time,1,R,5,1,51,3214,0,2,310,232,T
2022-12-02T18:29:49Z,c8cu3c3m,serial-reaction-time,1,P,5,1,52,3214,0,2,289,322,H
2022-12-02T18:29:49Z,c8cu3c3m,serial-reaction-time,1,R,5,1,53,3214,0,2,321,222,R
2022-12-02T18:29:49Z,c8cu3c3m,serial-reaction-time,NA,P,5,1,54,3214,0,1,150,221,H
2022-12-02T18:29:50Z,c8cu3c3m,serial-reaction-time,1,P,5,0,54,3214,0,1,489,221,H
2022-12-02T18:29:50Z,c8cu3c3m,serial-reaction-time,1,R,5,1,55,3214,0,2,455,212,T
2022-12-02T18:29:51Z,c8cu3c3m,serial-reaction-time,1,P,5,1,56,3214,0,4,419,124,H
2022-12-02T18:29:51Z,c8cu3c3m,serial-reaction-time,1,R,5,1,57,3214,0,1,364,241,H
2022-12-02T18:29:52Z,c8cu3c3m,serial-reaction-time,1,P,5,1,58,3214,0,3,331,413,H
2022-12-02T18:29:52Z,c8cu3c3m,serial-reaction-time,1,R,5,1,59,3214,0,3,267,133,L
2022-12-02T18:29:53Z,c8cu3c3m,serial-reaction-time,1,P,5,1,60,3214,0,2,360,332,H
2022-12-02T18:29:53Z,c8cu3c3m,serial-reaction-time,1,R,5,1,61,3214,0,1,393,321,L
2022-12-02T18:29:54Z,c8cu3c3m,serial-reaction-time,1,P,5,1,62,3214,0,1,330,211,H
2022-12-02T18:29:54Z,c8cu3c3m,serial-reaction-time,1,R,5,1,63,3214,0,3,427,113,L
2022-12-02T18:29:55Z,c8cu3c3m,serial-reaction-time,1,P,5,1,64,3214,0,4,329,134,H
2022-12-02T18:29:55Z,c8cu3c3m,serial-reaction-time,1,R,5,1,65,3214,0,3,304,343,T
2022-12-02T18:29:56Z,c8cu3c3m,serial-reaction-time,1,P,5,1,66,3214,0,3,368,433,H
2022-12-02T18:29:56Z,c8cu3c3m,serial-reaction-time,1,R,5,1,67,3214,0,3,300,333,R
2022-12-02T18:29:57Z,c8cu3c3m,serial-reaction-time,1,P,5,1,68,3214,0,2,418,332,H
2022-12-02T18:29:57Z,c8cu3c3m,serial-reaction-time,NA,R,5,1,69,3214,0,3,380,323,T
2022-12-02T18:29:58Z,c8cu3c3m,serial-reaction-time,1,R,5,0,69,3214,0,3,763,323,T
2022-12-02T18:29:58Z,c8cu3c3m,serial-reaction-time,1,P,5,1,70,3214,0,1,452,231,H
2022-12-02T18:29:59Z,c8cu3c3m,serial-reaction-time,1,R,5,1,71,3214,0,4,334,314,L
2022-12-02T18:29:59Z,c8cu3c3m,serial-reaction-time,1,P,5,1,72,3214,0,4,422,144,H
2022-12-02T18:30:00Z,c8cu3c3m,serial-reaction-time,1,R,5,1,73,3214,0,3,456,443,H
2022-12-02T18:30:00Z,c8cu3c3m,serial-reaction-time,1,P,5,1,74,3214,0,3,313,433,H
2022-12-02T18:30:01Z,c8cu3c3m,serial-reaction-time,1,R,5,1,75,3214,0,3,339,333,R
2022-12-02T18:30:01Z,c8cu3c3m,serial-reaction-time,1,P,5,1,76,3214,0,2,390,332,H
2022-12-02T18:30:02Z,c8cu3c3m,serial-reaction-time,1,R,5,1,77,3214,0,2,340,322,H
2022-12-02T18:30:02Z,c8cu3c3m,serial-reaction-time,1,P,5,1,78,3214,0,1,378,221,H
2022-12-02T18:30:03Z,c8cu3c3m,serial-reaction-time,NA,R,5,1,79,3214,0,2,393,212,T
2022-12-02T18:30:03Z,c8cu3c3m,serial-reaction-time,1,R,5,0,79,3214,0,2,940,212,T
2022-12-02T18:30:04Z,c8cu3c3m,serial-reaction-time,1,P,5,1,80,3214,0,4,367,124,H
2022-12-02T18:30:09Z,c8cu3c3m,html-keyboard-response,NA,NA,NA,NA,NA,NA,NA,NA,NA,NA,NA
2022-12-02T18:30:12Z,c8cu3c3m,html-keyboard-response,NA,NA,NA,NA,NA,NA,NA,NA,NA,NA,NA
2022-12-02T18:30:13Z,c8cu3c3m,fullscreen,NA,NA,NA,NA,NA,NA,NA,NA,NA,NA,NA
2022-12-02T18:30:09Z,98n9czmc,fullscreen,NA,NA,NA,NA,NA,NA,NA,NA,NA,NA,NA
2022-12-02T18:30:15Z,98n9czmc,html-keyboard-response,NA,NA,NA,NA,NA,NA,NA,NA,NA,NA,NA
2022-12-02T18:30:17Z,98n9czmc,serial-reaction-time,1,R,1,1,1,4132,0,3,390.30000019073486,3,X
2022-12-02T18:30:17Z,98n9czmc,serial-reaction-time,1,P,1,1,2,4132,0,4,286.7999999523163,34,X
2022-12-02T18:30:17Z,98n9czmc,serial-reaction-time,1,R,1,1,3,4132,0,4,262.30000019073486,344,L
2022-12-02T18:30:18Z,98n9czmc,serial-reaction-time,1,P,1,1,4,4132,0,1,455.2999999523163,441,H
2022-12-02T18:30:18Z,98n9czmc,serial-reaction-time,1,R,1,1,5,4132,0,3,324.09999990463257,413,L
2022-12-02T18:30:19Z,98n9czmc,serial-reaction-time,1,P,1,1,6,4132,0,3,264.89999985694885,133,H
2022-12-02T18:30:19Z,98n9czmc,serial-reaction-time,1,R,1,1,7,4132,0,2,400.09999990463257,332,H
2022-12-02T18:30:20Z,98n9czmc,serial-reaction-time,1,P,1,1,8,4132,0,2,238,322,H
2022-12-02T18:30:20Z,98n9czmc,serial-reaction-time,1,R,1,1,9,4132,0,4,284.2000000476837,224,H
2022-12-02T18:30:21Z,98n9czmc,serial-reaction-time,1,P,1,1,10,4132,0,4,259.40000009536743,244,H
2022-12-02T18:30:21Z,98n9czmc,serial-reaction-time,1,R,1,1,11,4132,0,3,313.69999980926514,443,L
2022-12-02T18:30:22Z,98n9czmc,serial-reaction-time,NA,P,1,1,12,4132,0,1,327.7000000476837,431,H
2022-12-02T18:30:22Z,98n9czmc,serial-reaction-time,1,P,1,0,12,4132,0,1,638.6000001430511,431,H
2022-12-02T18:30:22Z,98n9czmc,serial-reaction-time,1,R,1,1,13,4132,0,1,269.89999985694885,311,L
2022-12-02T18:30:23Z,98n9czmc,serial-reaction-time,1,P,1,1,14,4132,0,3,337.59999990463257,113,H
2022-12-02T18:30:23Z,98n9czmc,serial-reaction-time,1,R,1,1,15,4132,0,3,256,133,H
2022-12-02T18:30:24Z,98n9czmc,serial-reaction-time,1,P,1,1,16,4132,0,2,344.2000000476837,332,H
2022-12-02T18:30:24Z,98n9czmc,serial-reaction-time,1,R,1,1,17,4132,0,4,362.89999985694885,324,L
2022-12-02T18:30:24Z,98n9czmc,serial-reaction-time,1,P,1,1,18,4132,0,4,212.5,244,H
2022-12-02T18:30:25Z,98n9czmc,serial-reaction-time,1,R,1,1,19,4132,0,2,379.5,442,L
2022-12-02T18:30:25Z,98n9czmc,serial-reaction-time,1,P,1,1,20,4132,0,1,362.60000014305115,421,H
2022-12-02T18:30:26Z,98n9czmc,serial-reaction-time,1,R,1,1,21,4132,0,4,336.7999999523163,214,H
2022-12-02T18:30:27Z,98n9czmc,serial-reaction-time,1,P,1,1,22,4132,0,3,533.2999999523163,143,H
2022-12-02T18:30:27Z,98n9czmc,serial-reaction-time,1,R,1,1,23,4132,0,4,370.40000009536743,434,T
2022-12-02T18:30:28Z,98n9czmc,serial-reaction-time,1,P,1,1,24,4132,0,2,397.2999999523163,342,H
2022-12-02T18:30:28Z,98n9czmc,serial-reaction-time,NA,R,1,1,25,4132,0,4,327.2000000476837,424,T
2022-12-02T18:30:28Z,98n9czmc,serial-reaction-time,1,R,1,0,25,4132,0,4,355.39999985694885,424,T
2022-12-02T18:30:29Z,98n9czmc,serial-reaction-time,1,P,1,1,26,4132,0,4,351.39999985694885,244,H
2022-12-02T18:30:29Z,98n9czmc,serial-reaction-time,1,R,1,1,27,4132,0,2,394.7999999523163,442,L
2022-12-02T18:30:30Z,98n9czmc,serial-reaction-time,1,P,1,1,28,4132,0,1,393.10000014305115,421,H
2022-12-02T18:30:30Z,98n9czmc,serial-reaction-time,NA,R,1,1,29,4132,0,4,362.09999990463257,214,H
2022-12-02T18:30:30Z,98n9czmc,serial-reaction-time,1,R,1,0,29,4132,0,4,654.1999998092651,214,H
2022-12-02T18:30:31Z,98n9czmc,serial-reaction-time,1,P,1,1,30,4132,0,3,434.7000000476837,143,H
2022-12-02T18:30:31Z,98n9czmc,serial-reaction-time,1,R,1,1,31,4132,0,3,265.09999990463257,433,L
2022-12-02T18:30:32Z,98n9czmc,serial-reaction-time,1,P,1,1,32,4132,0,2,341.2000000476837,332,H
2022-12-02T18:30:32Z,98n9czmc,serial-reaction-time,1,R,1,1,33,4132,0,1,356.2000000476837,321,L
2022-12-02T18:30:33Z,98n9czmc,serial-reaction-time,1,P,1,1,34,4132,0,4,367.7999999523163,214,H
2022-12-02T18:30:33Z,98n9czmc,serial-reaction-time,1,R,1,1,35,4132,0,4,275,144,L
2022-12-02T18:30:34Z,98n9czmc,serial-reaction-time,1,P,1,1,36,4132,0,1,395.10000014305115,441,H
2022-12-02T18:30:34Z,98n9czmc,serial-reaction-time,1,R,1,1,37,4132,0,4,383.19999980926514,414,T
2022-12-02T18:30:35Z,98n9czmc,serial-reaction-time,1,P,1,1,38,4132,0,3,393,143,H
2022-12-02T18:30:35Z,98n9czmc,serial-reaction-time,1,R,1,1,39,4132,0,1,440.7000000476837,431,H
2022-12-02T18:30:36Z,98n9czmc,serial-reaction-time,1,P,1,1,40,4132,0,2,449.7999999523163,312,H
2022-12-02T18:30:36Z,98n9czmc,serial-reaction-time,1,R,1,1,41,4132,0,2,282.7999999523163,122,L
2022-12-02T18:30:37Z,98n9czmc,serial-reaction-time,1,P,1,1,42,4132,0,4,305.5,224,H
2022-12-02T18:30:37Z,98n9czmc,serial-reaction-time,1,R,1,1,43,4132,0,4,256.7999999523163,244,H
2022-12-02T18:30:38Z,98n9czmc,serial-reaction-time,1,P,1,1,44,4132,0,1,382.90000009536743,441,H
2022-12-02T18:30:38Z,98n9czmc,serial-reaction-time,1,R,1,1,45,4132,0,1,271.90000009536743,411,H
2022-12-02T18:30:39Z,98n9czmc,serial-reaction-time,NA,P,1,1,46,4132,0,3,296.7000000476837,113,H
2022-12-02T18:30:39Z,98n9czmc,serial-reaction-time,1,P,1,0,46,4132,0,3,627.2999999523163,113,H
2022-12-02T18:30:39Z,98n9czmc,serial-reaction-time,NA,R,1,1,47,4132,0,2,193.09999990463257,132,L
2022-12-02T18:30:40Z,98n9czmc,serial-reaction-time,1,R,1,0,47,4132,0,2,386.19999980926514,132,L
2022-12-02T18:30:40Z,98n9czmc,serial-reaction-time,1,P,1,1,48,4132,0,2,304.90000009536743,322,H
2022-12-02T18:30:40Z,98n9czmc,serial-reaction-time,1,R,1,1,49,4132,0,1,388.69999980926514,221,L
2022-12-02T18:30:41Z,98n9czmc,serial-reaction-time,NA,P,1,1,50,4132,0,4,173.30000019073486,214,H
2022-12-02T18:30:41Z,98n9czmc,serial-reaction-time,1,P,1,0,50,4132,0,4,378.60000014305115,214,H
2022-12-02T18:30:42Z,98n9czmc,serial-reaction-time,1,R,1,1,51,4132,0,2,383.2999999523163,142,L
2022-12-02T18:30:42Z,98n9czmc,serial-reaction-time,1,P,1,1,52,4132,0,1,371.5,421,H
2022-12-02T18:30:43Z,98n9czmc,serial-reaction-time,1,R,1,1,53,4132,0,2,364.09999990463257,212,T
2022-12-02T18:30:43Z,98n9czmc,serial-reaction-time,1,P,1,1,54,4132,0,3,378.90000009536743,123,H
2022-12-02T18:30:43Z,98n9czmc,serial-reaction-time,1,R,1,1,55,4132,0,3,328.09999990463257,233,L
2022-12-02T18:30:44Z,98n9czmc,serial-reaction-time,1,P,1,1,56,4132,0,2,353.09999990463257,332,H
2022-12-02T18:30:45Z,98n9czmc,serial-reaction-time,1,R,1,1,57,4132,0,3,414.40000009536743,323,T
2022-12-02T18:30:45Z,98n9czmc,serial-reaction-time,1,P,1,1,58,4132,0,4,385.40000009536743,234,H
2022-12-02T18:30:46Z,98n9czmc,serial-reaction-time,1,R,1,1,59,4132,0,3,438.2999999523163,343,T
2022-12-02T18:30:46Z,98n9czmc,serial-reaction-time,1,P,1,1,60,4132,0,1,440.7999999523163,431,H
2022-12-02T18:30:47Z,98n9czmc,serial-reaction-time,1,R,1,1,61,4132,0,1,288.2000000476837,311,L
2022-12-02T18:30:47Z,98n9czmc,serial-reaction-time,1,P,1,1,62,4132,0,3,296.5,113,H
2022-12-02T18:30:47Z,98n9czmc,serial-reaction-time,1,R,1,1,63,4132,0,3,236,133,H
2022-12-02T18:30:48Z,98n9czmc,serial-reaction-time,NA,P,1,1,64,4132,0,2,305.90000009536743,332,H
2022-12-02T18:30:48Z,98n9czmc,serial-reaction-time,1,P,1,0,64,4132,0,2,561.5,332,H
2022-12-02T18:30:48Z,98n9czmc,serial-reaction-time,1,R,1,1,65,4132,0,2,254,322,H
2022-12-02T18:30:49Z,98n9czmc,serial-reaction-time,1,P,1,1,66,4132,0,4,314.7999999523163,224,H
2022-12-02T18:30:49Z,98n9czmc,serial-reaction-time,1,R,1,1,67,4132,0,1,405.30000019073486,241,L
2022-12-02T18:30:50Z,98n9czmc,serial-reaction-time,1,P,1,1,68,4132,0,1,269.5,411,H
2022-12-02T18:30:50Z,98n9czmc,serial-reaction-time,1,R,1,1,69,4132,0,4,319.2999999523163,114,L
2022-12-02T18:30:51Z,98n9czmc,serial-reaction-time,NA,P,1,1,70,4132,0,3,268.5,143,H
2022-12-02T18:30:51Z,98n9czmc,serial-reaction-time,1,P,1,0,70,4132,0,3,486.40000009536743,143,H
2022-12-02T18:30:51Z,98n9czmc,serial-reaction-time,1,R,1,1,71,4132,0,1,343.2999999523163,431,H
2022-12-02T18:30:52Z,98n9czmc,serial-reaction-time,1,P,1,1,72,4132,0,2,459.2999999523163,312,H
2022-12-02T18:30:53Z,98n9czmc,serial-reaction-time,1,R,1,1,73,4132,0,4,393.7999999523163,124,L
2022-12-02T18:30:53Z,98n9czmc,serial-reaction-time,1,P,1,1,74,4132,0,4,303.5,244,H
2022-12-02T18:30:53Z,98n9czmc,serial-reaction-time,1,R,1,1,75,4132,0,3,330,443,L
2022-12-02T18:30:54Z,98n9czmc,serial-reaction-time,1,P,1,1,76,4132,0,1,401,431,H
2022-12-02T18:30:55Z,98n9czmc,serial-reaction-time,1,R,1,1,77,4132,0,4,386.7000000476837,314,L
2022-12-02T18:30:55Z,98n9czmc,serial-reaction-time,1,P,1,1,78,4132,0,3,416.7000000476837,143,H
2022-12-02T18:30:56Z,98n9czmc,serial-reaction-time,1,R,1,1,79,4132,0,2,410.60000014305115,432,L
2022-12-02T18:30:56Z,98n9czmc,serial-reaction-time,1,P,1,1,80,4132,0,2,480.39999985694885,322,H
2022-12-02T18:31:01Z,98n9czmc,html-keyboard-response,NA,NA,NA,NA,NA,NA,NA,NA,NA,NA,NA
2022-12-02T18:31:02Z,98n9czmc,html-keyboard-response,NA,NA,NA,NA,NA,NA,NA,NA,NA,NA,NA
2022-12-02T18:31:04Z,98n9czmc,serial-reaction-time,1,R,2,1,1,4132,0,1,705.5999999046326,1,X
2022-12-02T18:31:05Z,98n9czmc,serial-reaction-time,1,P,2,1,2,4132,0,4,378.7000000476837,14,X
2022-12-02T18:31:05Z,98n9czmc,serial-reaction-time,NA,R,2,1,3,4132,0,1,426,141,T
2022-12-02T18:31:05Z,98n9czmc,serial-reaction-time,1,R,2,0,3,4132,0,1,722.6000001430511,141,T
2022-12-02T18:31:06Z,98n9czmc,serial-reaction-time,1,P,2,1,4,4132,0,1,279.7000000476837,411,H
2022-12-02T18:31:06Z,98n9czmc,serial-reaction-time,1,R,2,1,5,4132,0,4,388.7000000476837,114,L
2022-12-02T18:31:07Z,98n9czmc,serial-reaction-time,1,P,2,1,6,4132,0,3,385.19999980926514,143,H
2022-12-02T18:31:07Z,98n9czmc,serial-reaction-time,1,R,2,1,7,4132,0,1,466.7000000476837,431,H
2022-12-02T18:31:08Z,98n9czmc,serial-reaction-time,1,P,2,1,8,4132,0,2,459.5,312,H
2022-12-02T18:31:09Z,98n9czmc,serial-reaction-time,1,R,2,1,9,4132,0,4,417.89999985694885,124,L
2022-12-02T18:31:09Z,98n9czmc,serial-reaction-time,1,P,2,1,10,4132,0,4,291.5,244,H
2022-12-02T18:31:09Z,98n9czmc,serial-reaction-time,1,R,2,1,11,4132,0,4,346.89999985694885,444,R
2022-12-02T18:31:10Z,98n9czmc,serial-reaction-time,1,P,2,1,12,4132,0,1,421.2000000476837,441,H
2022-12-02T18:31:10Z,98n9czmc,serial-reaction-time,1,R,2,1,13,4132,0,1,241.29999995231628,411,H
2022-12-02T18:31:11Z,98n9czmc,serial-reaction-time,1,P,2,1,14,4132,0,3,361.10000014305115,113,H
2022-12-02T18:31:12Z,98n9czmc,serial-reaction-time,NA,R,2,1,15,4132,0,2,441.59999990463257,132,L
2022-12-02T18:31:12Z,98n9czmc,serial-reaction-time,1,R,2,0,15,4132,0,2,604.7000000476837,132,L
2022-12-02T18:31:12Z,98n9czmc,serial-reaction-time,1,P,2,1,16,4132,0,2,272.60000014305115,322,H
2022-12-02T18:31:13Z,98n9czmc,serial-reaction-time,1,R,2,1,17,4132,0,4,315.7999999523163,224,H
2022-12-02T18:31:13Z,98n9czmc,serial-reaction-time,1,P,2,1,18,4132,0,4,253.90000009536743,244,H
2022-12-02T18:31:13Z,98n9czmc,serial-reaction-time,1,R,2,1,19,4132,0,4,404.60000014305115,444,R
2022-12-02T18:31:14Z,98n9czmc,serial-reaction-time,1,P,2,1,20,4132,0,1,397.60000014305115,441,H
2022-12-02T18:31:14Z,98n9czmc,serial-reaction-time,1,R,2,1,21,4132,0,4,338.40000009536743,414,T
2022-12-02T18:31:15Z,98n9czmc,serial-reaction-time,1,P,2,1,22,4132,0,3,415.5,143,H
2022-12-02T18:31:16Z,98n9czmc,serial-reaction-time,1,R,2,1,23,4132,0,2,434.90000009536743,432,L
2022-12-02T18:31:16Z,98n9czmc,serial-reaction-time,1,P,2,1,24,4132,0,2,337.2999999523163,322,H
2022-12-02T18:31:17Z,98n9czmc,serial-reaction-time,1,R,2,1,25,4132,0,3,373,223,L
2022-12-02T18:31:17Z,98n9czmc,serial-reaction-time,1,P,2,1,26,4132,0,4,314.2000000476837,234,H
2022-12-02T18:31:18Z,98n9czmc,serial-reaction-time,1,R,2,1,27,4132,0,2,376.7000000476837,342,H
2022-12-02T18:31:18Z,98n9czmc,serial-reaction-time,1,P,2,1,28,4132,0,1,397.5,421,H
2022-12-02T18:31:19Z,98n9czmc,serial-reaction-time,1,R,2,1,29,4132,0,4,400.2000000476837,214,H
2022-12-02T18:31:19Z,98n9czmc,serial-reaction-time,1,P,2,1,30,4132,0,3,395.09999990463257,143,H
2022-12-02T18:31:20Z,98n9czmc,serial-reaction-time,1,R,2,1,31,4132,0,3,327.7999999523163,433,L
2022-12-02T18:31:20Z,98n9czmc,serial-reaction-time,1,P,2,1,32,4132,0,2,320.2000000476837,332,H
2022-12-02T18:31:21Z,98n9czmc,serial-reaction-time,1,R,2,1,33,4132,0,1,346.09999990463257,321,L
2022-12-02T18:31:21Z,98n9czmc,serial-reaction-time,1,P,2,1,34,4132,0,4,496,214,H
2022-12-02T18:31:22Z,98n9czmc,serial-reaction-time,1,R,2,1,35,4132,0,2,443.2000000476837,142,L
2022-12-02T18:31:22Z,98n9czmc,serial-reaction-time,1,P,2,1,36,4132,0,1,384,421,H
2022-12-02T18:31:23Z,98n9czmc,serial-reaction-time,1,R,2,1,37,4132,0,3,360.19999980926514,213,L
2022-12-02T18:31:23Z,98n9czmc,serial-reaction-time,1,P,2,1,38,4132,0,3,292.59999990463257,133,H
2022-12-02T18:31:24Z,98n9czmc,serial-reaction-time,1,R,2,1,39,4132,0,2,401.10000014305115,332,H
2022-12-02T18:31:24Z,98n9czmc,serial-reaction-time,1,P,2,1,40,4132,0,2,254.39999985694885,322,H
2022-12-02T18:31:25Z,98n9czmc,serial-reaction-time,NA,R,2,1,41,4132,0,1,356.40000009536743,221,L
2022-12-02T18:31:25Z,98n9czmc,serial-reaction-time,1,R,2,0,41,4132,0,1,565.7000000476837,221,L
2022-12-02T18:31:25Z,98n9czmc,serial-reaction-time,1,P,2,1,42,4132,0,4,365.69999980926514,214,H
2022-12-02T18:31:26Z,98n9czmc,serial-reaction-time,1,R,2,1,43,4132,0,1,522.1000001430511,141,T
2022-12-02T18:31:26Z,98n9czmc,serial-reaction-time,1,P,2,1,44,4132,0,1,307.7000000476837,411,H
2022-12-02T18:31:27Z,98n9czmc,serial-reaction-time,1,R,2,1,45,4132,0,1,292.30000019073486,111,R
2022-12-02T18:31:27Z,98n9czmc,serial-reaction-time,1,P,2,1,46,4132,0,3,360.39999985694885,113,H
2022-12-02T18:31:28Z,98n9czmc,serial-reaction-time,NA,R,2,1,47,4132,0,2,353.7000000476837,132,L
2022-12-02T18:31:28Z,98n9czmc,serial-reaction-time,1,R,2,0,47,4132,0,2,608.2999999523163,132,L
2022-12-02T18:31:29Z,98n9czmc,serial-reaction-time,1,P,2,1,48,4132,0,2,282.59999990463257,322,H
2022-12-02T18:31:29Z,98n9czmc,serial-reaction-time,1,R,2,1,49,4132,0,1,369.7999999523163,221,L
2022-12-02T18:31:30Z,98n9czmc,serial-reaction-time,1,P,2,1,50,4132,0,4,369.39999985694885,214,H
2022-12-02T18:31:30Z,98n9czmc,serial-reaction-time,1,R,2,1,51,4132,0,2,430,142,L
2022-12-02T18:31:31Z,98n9czmc,serial-reaction-time,1,P,2,1,52,4132,0,1,433.40000009536743,421,H
2022-12-02T18:31:31Z,98n9czmc,serial-reaction-time,1,R,2,1,53,4132,0,3,415,213,L
2022-12-02T18:31:32Z,98n9czmc,serial-reaction-time,1,P,2,1,54,4132,0,3,277.59999990463257,133,H
2022-12-02T18:31:32Z,98n9czmc,serial-reaction-time,1,R,2,1,55,4132,0,4,311.30000019073486,334,L
2022-12-02T18:31:33Z,98n9czmc,serial-reaction-time,1,P,2,1,56,4132,0,2,345.40000009536743,342,H
2022-12-02T18:31:33Z,98n9czmc,serial-reaction-time,1,R,2,1,57,4132,0,2,295.7999999523163,422,L
2022-12-02T18:31:34Z,98n9czmc,serial-reaction-time,NA,P,2,1,58,4132,0,4,405.2999999523163,224,H
2022-12-02T18:31:34Z,98n9czmc,serial-reaction-time,1,P,2,0,58,4132,0,4,645.5,224,H
2022-12-02T18:31:34Z,98n9czmc,serial-reaction-time,1,R,2,1,59,4132,0,2,423.59999990463257,242,T
2022-12-02T18:31:35Z,98n9czmc,serial-reaction-time,1,P,2,1,60,4132,0,1,478.5,421,H
2022-12-02T18:31:36Z,98n9czmc,serial-reaction-time,1,R,2,1,61,4132,0,3,419.2999999523163,213,L
2022-12-02T18:31:36Z,98n9czmc,serial-reaction-time,1,P,2,1,62,4132,0,3,278.39999985694885,133,H
2022-12-02T18:31:36Z,98n9czmc,serial-reaction-time,NA,R,2,1,63,4132,0,2,392.5,332,H
2022-12-02T18:31:37Z,98n9czmc,serial-reaction-time,1,R,2,0,63,4132,0,2,681.2000000476837,332,H
2022-12-02T18:31:37Z,98n9czmc,serial-reaction-time,1,P,2,1,64,4132,0,2,260.7000000476837,322,H
2022-12-02T18:31:38Z,98n9czmc,serial-reaction-time,1,R,2,1,65,4132,0,2,369.09999990463257,222,R
2022-12-02T18:31:38Z,98n9czmc,serial-reaction-time,1,P,2,1,66,4132,0,4,400.2999999523163,224,H
2022-12-02T18:31:39Z,98n9czmc,serial-reaction-time,1,R,2,1,67,4132,0,2,494.7000000476837,242,T
2022-12-02T18:31:39Z,98n9czmc,serial-reaction-time,1,P,2,1,68,4132,0,1,389.60000014305115,421,H
2022-12-02T18:31:40Z,98n9czmc,serial-reaction-time,1,R,2,1,69,4132,0,4,391.80000019073486,214,H
2022-12-02T18:31:40Z,98n9czmc,serial-reaction-time,1,P,2,1,70,4132,0,3,369.39999985694885,143,H
2022-12-02T18:31:41Z,98n9czmc,serial-reaction-time,1,R,2,1,71,4132,0,1,518.9000000953674,431,H
2022-12-02T18:31:42Z,98n9czmc,serial-reaction-time,1,P,2,1,72,4132,0,2,361.10000014305115,312,H
2022-12-02T18:31:42Z,98n9czmc,serial-reaction-time,1,R,2,1,73,4132,0,4,391.39999985694885,124,L
2022-12-02T18:31:43Z,98n9czmc,serial-reaction-time,1,P,2,1,74,4132,0,4,344.5,244,H
2022-12-02T18:31:43Z,98n9czmc,serial-reaction-time,1,R,2,1,75,4132,0,3,427.7000000476837,443,L
2022-12-02T18:31:44Z,98n9czmc,serial-reaction-time,1,P,2,1,76,4132,0,1,440.39999985694885,431,H
2022-12-02T18:31:44Z,98n9czmc,serial-reaction-time,1,R,2,1,77,4132,0,4,421.59999990463257,314,L
2022-12-02T18:31:45Z,98n9czmc,serial-reaction-time,1,P,2,1,78,4132,0,3,417.7000000476837,143,H
2022-12-02T18:31:45Z,98n9czmc,serial-reaction-time,1,R,2,1,79,4132,0,3,362.7999999523163,433,L
2022-12-02T18:31:46Z,98n9czmc,serial-reaction-time,1,P,2,1,80,4132,0,2,464.39999985694885,332,H
2022-12-02T18:31:51Z,98n9czmc,html-keyboard-response,NA,NA,NA,NA,NA,NA,NA,NA,NA,NA,NA
2022-12-02T18:31:51Z,98n9czmc,html-keyboard-response,NA,NA,NA,NA,NA,NA,NA,NA,NA,NA,NA
2022-12-02T18:31:53Z,98n9czmc,serial-reaction-time,1,R,3,1,1,4132,0,3,412.5,3,X
2022-12-02T18:31:53Z,98n9czmc,serial-reaction-time,1,P,3,1,2,4132,0,4,333,34,X
2022-12-02T18:31:54Z,98n9czmc,serial-reaction-time,1,R,3,1,3,4132,0,2,392.09999990463257,342,H
2022-12-02T18:31:54Z,98n9czmc,serial-reaction-time,1,P,3,1,4,4132,0,1,379.09999990463257,421,H
2022-12-02T18:31:55Z,98n9czmc,serial-reaction-time,1,R,3,1,5,4132,0,4,375.5,214,H
2022-12-02T18:31:55Z,98n9czmc,serial-reaction-time,1,P,3,1,6,4132,0,3,342.7000000476837,143,H
2022-12-02T18:31:56Z,98n9czmc,serial-reaction-time,1,R,3,1,7,4132,0,2,395,432,L
2022-12-02T18:31:56Z,98n9czmc,serial-reaction-time,1,P,3,1,8,4132,0,2,347.7999999523163,322,H
2022-12-02T18:31:57Z,98n9czmc,serial-reaction-time,1,R,3,1,9,4132,0,1,404.2999999523163,221,L
2022-12-02T18:31:57Z,98n9czmc,serial-reaction-time,1,P,3,1,10,4132,0,4,390,214,H
2022-12-02T18:31:58Z,98n9czmc,serial-reaction-time,1,R,3,1,11,4132,0,1,436.59999990463257,141,T
2022-12-02T18:31:59Z,98n9czmc,serial-reaction-time,1,P,3,1,12,4132,0,1,325.09999990463257,411,H
2022-12-02T18:31:59Z,98n9czmc,serial-reaction-time,1,R,3,1,13,4132,0,3,373,113,H
2022-12-02T18:31:59Z,98n9czmc,serial-reaction-time,1,P,3,1,14,4132,0,3,255.40000009536743,133,H
2022-12-02T18:32:00Z,98n9czmc,serial-reaction-time,1,R,3,1,15,4132,0,4,334.5,334,L
2022-12-02T18:32:00Z,98n9czmc,serial-reaction-time,1,P,3,1,16,4132,0,2,455.19999980926514,342,H
2022-12-02T18:32:01Z,98n9czmc,serial-reaction-time,1,R,3,1,17,4132,0,2,303.90000009536743,422,L
2022-12-02T18:32:01Z,98n9czmc,serial-reaction-time,1,P,3,1,18,4132,0,4,353.7999999523163,224,H
2022-12-02T18:32:02Z,98n9czmc,serial-reaction-time,1,R,3,1,19,4132,0,4,322.2000000476837,244,H
2022-12-02T18:32:02Z,98n9czmc,serial-reaction-time,1,P,3,1,20,4132,0,1,373.10000014305115,441,H
2022-12-02T18:32:03Z,98n9czmc,serial-reaction-time,1,R,3,1,21,4132,0,1,312.7000000476837,411,H
2022-12-02T18:32:03Z,98n9czmc,serial-reaction-time,1,P,3,1,22,4132,0,3,291.5,113,H
2022-12-02T18:32:04Z,98n9czmc,serial-reaction-time,1,R,3,1,23,4132,0,1,380.40000009536743,131,T
2022-12-02T18:32:04Z,98n9czmc,serial-reaction-time,1,P,3,1,24,4132,0,2,490.5,312,H
2022-12-02T18:32:05Z,98n9czmc,serial-reaction-time,1,R,3,1,25,4132,0,1,445.5,121,T
2022-12-02T18:32:05Z,98n9czmc,serial-reaction-time,1,P,3,1,26,4132,0,4,411.2000000476837,214,H
2022-12-02T18:32:06Z,98n9czmc,serial-reaction-time,1,R,3,1,27,4132,0,2,428.7999999523163,142,L
2022-12-02T18:32:07Z,98n9czmc,serial-reaction-time,1,P,3,1,28,4132,0,1,401,421,H
2022-12-02T18:32:07Z,98n9czmc,serial-reaction-time,1,R,3,1,29,4132,0,4,400.7999999523163,214,H
2022-12-02T18:32:08Z,98n9czmc,serial-reaction-time,1,P,3,1,30,4132,0,3,378.5,143,H
2022-12-02T18:32:08Z,98n9czmc,serial-reaction-time,NA,R,3,1,31,4132,0,2,448,432,L
2022-12-02T18:32:08Z,98n9czmc,serial-reaction-time,1,R,3,0,31,4132,0,2,472.2000000476837,432,L
2022-12-02T18:32:09Z,98n9czmc,serial-reaction-time,1,P,3,1,32,4132,0,2,338.5,322,H
2022-12-02T18:32:09Z,98n9czmc,serial-reaction-time,1,R,3,1,33,4132,0,1,357.90000009536743,221,L
2022-12-02T18:32:10Z,98n9czmc,serial-reaction-time,1,P,3,1,34,4132,0,4,382.39999985694885,214,H
2022-12-02T18:32:10Z,98n9czmc,serial-reaction-time,1,R,3,1,35,4132,0,1,430,141,T
2022-12-02T18:32:11Z,98n9czmc,serial-reaction-time,1,P,3,1,36,4132,0,1,360.7999999523163,411,H
2022-12-02T18:32:11Z,98n9czmc,serial-reaction-time,1,R,3,1,37,4132,0,4,375.40000009536743,114,L
2022-12-02T18:32:12Z,98n9czmc,serial-reaction-time,1,P,3,1,38,4132,0,3,416.2999999523163,143,H
2022-12-02T18:32:13Z,98n9czmc,serial-reaction-time,1,R,3,1,39,4132,0,4,605.6000001430511,434,T
2022-12-02T18:32:13Z,98n9czmc,serial-reaction-time,1,P,3,1,40,4132,0,2,458.7999999523163,342,H
2022-12-02T18:32:14Z,98n9czmc,serial-reaction-time,1,R,3,1,41,4132,0,1,394.90000009536743,421,H
2022-12-02T18:32:14Z,98n9czmc,serial-reaction-time,1,P,3,1,42,4132,0,4,367.2000000476837,214,H
2022-12-02T18:32:15Z,98n9czmc,serial-reaction-time,1,R,3,1,43,4132,0,3,316.89999985694885,143,H
2022-12-02T18:32:15Z,98n9czmc,serial-reaction-time,1,P,3,1,44,4132,0,1,452.60000014305115,431,H
2022-12-02T18:32:16Z,98n9czmc,serial-reaction-time,1,R,3,1,45,4132,0,4,440.7000000476837,314,L
2022-12-02T18:32:16Z,98n9czmc,serial-reaction-time,1,P,3,1,46,4132,0,3,366,143,H
2022-12-02T18:32:17Z,98n9czmc,serial-reaction-time,1,R,3,1,47,4132,0,4,542.5,434,T
2022-12-02T18:32:18Z,98n9czmc,serial-reaction-time,1,P,3,1,48,4132,0,2,534.8999998569489,342,H
2022-12-02T18:32:18Z,98n9czmc,serial-reaction-time,1,R,3,1,49,4132,0,1,390.7000000476837,421,H
2022-12-02T18:32:19Z,98n9czmc,serial-reaction-time,1,P,3,1,50,4132,0,4,416.2999999523163,214,H
2022-12-02T18:32:19Z,98n9czmc,serial-reaction-time,1,R,3,1,51,4132,0,2,464.2999999523163,142,L
2022-12-02T18:32:20Z,98n9czmc,serial-reaction-time,1,P,3,1,52,4132,0,1,655.2999999523163,421,H
2022-12-02T18:32:21Z,98n9czmc,serial-reaction-time,1,R,3,1,53,4132,0,2,602.5,212,T
2022-12-02T18:32:21Z,98n9czmc,serial-reaction-time,1,P,3,1,54,4132,0,3,477,123,H
2022-12-02T18:32:22Z,98n9czmc,serial-reaction-time,1,R,3,1,55,4132,0,3,299.7000000476837,233,L
2022-12-02T18:32:23Z,98n9czmc,serial-reaction-time,1,P,3,1,56,4132,0,2,482.7000000476837,332,H
2022-12-02T18:32:23Z,98n9czmc,serial-reaction-time,1,R,3,1,57,4132,0,4,404.5,324,L
2022-12-02T18:32:24Z,98n9czmc,serial-reaction-time,1,P,3,1,58,4132,0,4,397.7000000476837,244,H
2022-12-02T18:32:24Z,98n9czmc,serial-reaction-time,1,R,3,1,59,4132,0,2,468.7000000476837,442,L
2022-12-02T18:32:25Z,98n9czmc,serial-reaction-time,1,P,3,1,60,4132,0,1,407.2999999523163,421,H
2022-12-02T18:32:25Z,98n9czmc,serial-reaction-time,1,R,3,1,61,4132,0,4,446.2999999523163,214,H
2022-12-02T18:32:26Z,98n9czmc,serial-reaction-time,1,P,3,1,62,4132,0,3,475.89999985694885,143,H
2022-12-02T18:32:26Z,98n9czmc,serial-reaction-time,1,R,3,1,63,4132,0,2,360.7999999523163,432,L
2022-12-02T18:32:27Z,98n9czmc,serial-reaction-time,1,P,3,1,64,4132,0,2,515.3999998569489,322,H
2022-12-02T18:32:28Z,98n9czmc,serial-reaction-time,1,R,3,1,65,4132,0,2,375.7999999523163,222,R
2022-12-02T18:32:28Z,98n9czmc,serial-reaction-time,1,P,3,1,66,4132,0,4,352.40000009536743,224,H
2022-12-02T18:32:29Z,98n9czmc,serial-reaction-time,1,R,3,1,67,4132,0,2,390.40000009536743,242,T
2022-12-02T18:32:29Z,98n9czmc,serial-reaction-time,NA,P,3,1,68,4132,0,1,342.2000000476837,421,H
2022-12-02T18:32:29Z,98n9czmc,serial-reaction-time,1,P,3,0,68,4132,0,1,587.5,421,H
2022-12-02T18:32:30Z,98n9czmc,serial-reaction-time,1,R,3,1,69,4132,0,1,309.2000000476837,211,L
2022-12-02T18:32:30Z,98n9czmc,serial-reaction-time,1,P,3,1,70,4132,0,3,407.89999985694885,113,H
2022-12-02T18:32:31Z,98n9czmc,serial-reaction-time,1,R,3,1,71,4132,0,3,281.7999999523163,133,H
2022-12-02T18:32:31Z,98n9czmc,serial-reaction-time,1,P,3,1,72,4132,0,2,364.7999999523163,332,H
2022-12-02T18:32:32Z,98n9czmc,serial-reaction-time,1,R,3,1,73,4132,0,2,265.5,322,H
2022-12-02T18:32:32Z,98n9czmc,serial-reaction-time,1,P,3,1,74,4132,0,4,346.5,224,H
2022-12-02T18:32:33Z,98n9czmc,serial-reaction-time,1,R,3,1,75,4132,0,1,366.40000009536743,241,L
2022-12-02T18:32:33Z,98n9czmc,serial-reaction-time,1,P,3,1,76,4132,0,1,298.2000000476837,411,H
2022-12-02T18:32:33Z,98n9czmc,serial-reaction-time,NA,R,3,1,77,4132,0,2,290.2000000476837,112,L
2022-12-02T18:32:34Z,98n9czmc,serial-reaction-time,1,R,3,0,77,4132,0,2,565.4000000953674,112,L
2022-12-02T18:32:34Z,98n9czmc,serial-reaction-time,1,P,3,1,78,4132,0,3,340.80000019073486,123,H
2022-12-02T18:32:35Z,98n9czmc,serial-reaction-time,1,R,3,1,79,4132,0,3,371.59999990463257,233,L
2022-12-02T18:32:35Z,98n9czmc,serial-reaction-time,1,P,3,1,80,4132,0,2,551.7000000476837,332,H
2022-12-02T18:32:40Z,98n9czmc,html-keyboard-response,NA,NA,NA,NA,NA,NA,NA,NA,NA,NA,NA
2022-12-02T18:32:41Z,98n9czmc,html-keyboard-response,NA,NA,NA,NA,NA,NA,NA,NA,NA,NA,NA
2022-12-02T18:32:42Z,98n9czmc,serial-reaction-time,1,R,4,1,1,4132,0,1,337.5,1,X
2022-12-02T18:32:43Z,98n9czmc,serial-reaction-time,1,P,4,1,2,4132,0,4,324.7000000476837,14,X
2022-12-02T18:32:43Z,98n9czmc,serial-reaction-time,1,R,4,1,3,4132,0,2,334.5,142,L
2022-12-02T18:32:44Z,98n9czmc,serial-reaction-time,1,P,4,1,4,4132,0,1,393.7000000476837,421,H
2022-12-02T18:32:44Z,98n9czmc,serial-reaction-time,1,R,4,1,5,4132,0,4,388.89999985694885,214,H
2022-12-02T18:32:45Z,98n9czmc,serial-reaction-time,1,P,4,1,6,4132,0,3,369.09999990463257,143,H
2022-12-02T18:32:45Z,98n9czmc,serial-reaction-time,1,R,4,1,7,4132,0,4,359.5,434,T
2022-12-02T18:32:46Z,98n9czmc,serial-reaction-time,NA,P,4,1,8,4132,0,2,415.5,342,H
2022-12-02T18:32:46Z,98n9czmc,serial-reaction-time,1,P,4,0,8,4132,0,2,705.5999999046326,342,H
2022-12-02T18:32:47Z,98n9czmc,serial-reaction-time,1,R,4,1,9,4132,0,2,291.2999999523163,422,L
2022-12-02T18:32:47Z,98n9czmc,serial-reaction-time,1,P,4,1,10,4132,0,4,331.2999999523163,224,H
2022-12-02T18:32:48Z,98n9czmc,serial-reaction-time,1,R,4,1,11,4132,0,1,456.30000019073486,241,L
2022-12-02T18:32:48Z,98n9czmc,serial-reaction-time,1,P,4,1,12,4132,0,1,278.2000000476837,411,H
2022-12-02T18:32:49Z,98n9czmc,serial-reaction-time,1,R,4,1,13,4132,0,1,365.7000000476837,111,R
2022-12-02T18:32:49Z,98n9czmc,serial-reaction-time,1,P,4,1,14,4132,0,3,385.2000000476837,113,H
2022-12-02T18:32:50Z,98n9czmc,serial-reaction-time,1,R,4,1,15,4132,0,3,297.80000019073486,133,H
2022-12-02T18:32:50Z,98n9czmc,serial-reaction-time,1,P,4,1,16,4132,0,2,351.10000014305115,332,H
2022-12-02T18:32:50Z,98n9czmc,serial-reaction-time,NA,R,4,1,17,4132,0,3,191.8000001907349,323,T
2022-12-02T18:32:51Z,98n9czmc,serial-reaction-time,1,R,4,0,17,4132,0,3,420.2000002861023,323,T
2022-12-02T18:32:51Z,98n9czmc,serial-reaction-time,1,P,4,1,18,4132,0,4,398.2999999523163,234,H
2022-12-02T18:32:52Z,98n9czmc,serial-reaction-time,1,R,4,1,19,4132,0,4,268.89999985694885,344,L
2022-12-02T18:32:52Z,98n9czmc,serial-reaction-time,1,P,4,1,20,4132,0,1,421.90000009536743,441,H
2022-12-02T18:32:53Z,98n9czmc,serial-reaction-time,1,R,4,1,21,4132,0,1,276.2999999523163,411,H
2022-12-02T18:32:53Z,98n9czmc,serial-reaction-time,1,P,4,1,22,4132,0,3,379.59999990463257,113,H
2022-12-02T18:32:53Z,98n9czmc,serial-reaction-time,1,R,4,1,23,4132,0,3,225.79999995231628,133,H
2022-12-02T18:32:54Z,98n9czmc,serial-reaction-time,NA,P,4,1,24,4132,0,2,329.89999985694885,332,H
2022-12-02T18:32:54Z,98n9czmc,serial-reaction-time,1,P,4,0,24,4132,0,2,633.2999997138977,332,H
2022-12-02T18:32:55Z,98n9czmc,serial-reaction-time,NA,R,4,1,25,4132,0,1,194.29999995231628,321,L
2022-12-02T18:32:55Z,98n9czmc,serial-reaction-time,1,R,4,0,25,4132,0,1,530.1999998092651,321,L
2022-12-02T18:32:55Z,98n9czmc,serial-reaction-time,1,P,4,1,26,4132,0,4,356,214,H
2022-12-02T18:32:56Z,98n9czmc,serial-reaction-time,NA,R,4,1,27,4132,0,3,227,143,H
2022-12-02T18:32:56Z,98n9czmc,serial-reaction-time,1,R,4,0,27,4132,0,3,580,143,H
2022-12-02T18:32:57Z,98n9czmc,serial-reaction-time,1,P,4,1,28,4132,0,1,468.80000019073486,431,H
2022-12-02T18:32:57Z,98n9czmc,serial-reaction-time,1,R,4,1,29,4132,0,4,460.10000014305115,314,L
2022-12-02T18:32:58Z,98n9czmc,serial-reaction-time,1,P,4,1,30,4132,0,3,494.80000019073486,143,H
2022-12-02T18:32:58Z,98n9czmc,serial-reaction-time,1,R,4,1,31,4132,0,2,436.59999990463257,432,L
2022-12-02T18:32:59Z,98n9czmc,serial-reaction-time,1,P,4,1,32,4132,0,2,335.7999999523163,322,H
2022-12-02T18:32:59Z,98n9czmc,serial-reaction-time,1,R,4,1,33,4132,0,1,430.60000014305115,221,L
2022-12-02T18:33:00Z,98n9czmc,serial-reaction-time,1,P,4,1,34,4132,0,4,390.40000009536743,214,H
2022-12-02T18:33:01Z,98n9czmc,serial-reaction-time,1,R,4,1,35,4132,0,1,511.7999999523163,141,T
2022-12-02T18:33:01Z,98n9czmc,serial-reaction-time,1,P,4,1,36,4132,0,1,327.60000014305115,411,H
2022-12-02T18:33:02Z,98n9czmc,serial-reaction-time,1,R,4,1,37,4132,0,3,374.40000009536743,113,H
2022-12-02T18:33:02Z,98n9czmc,serial-reaction-time,1,P,4,1,38,4132,0,3,250.60000014305115,133,H
2022-12-02T18:33:03Z,98n9czmc,serial-reaction-time,1,R,4,1,39,4132,0,2,372.7999999523163,332,H
2022-12-02T18:33:03Z,98n9czmc,serial-reaction-time,1,P,4,1,40,4132,0,2,205.09999990463257,322,H
2022-12-02T18:33:03Z,98n9czmc,serial-reaction-time,1,R,4,1,41,4132,0,1,408.59999990463257,221,L
2022-12-02T18:33:04Z,98n9czmc,serial-reaction-time,NA,P,4,1,42,4132,0,4,192.39999985694885,214,H
2022-12-02T18:33:04Z,98n9czmc,serial-reaction-time,1,P,4,0,42,4132,0,4,531.3999998569489,214,H
2022-12-02T18:33:05Z,98n9czmc,serial-reaction-time,1,R,4,1,43,4132,0,3,441.7999999523163,143,H
2022-12-02T18:33:05Z,98n9czmc,serial-reaction-time,NA,P,4,1,44,4132,0,1,350.59999990463257,431,H
2022-12-02T18:33:05Z,98n9czmc,serial-reaction-time,1,P,4,0,44,4132,0,1,602.6999998092651,431,H
2022-12-02T18:33:06Z,98n9czmc,serial-reaction-time,1,R,4,1,45,4132,0,2,388.2000000476837,312,H
2022-12-02T18:33:06Z,98n9czmc,serial-reaction-time,1,P,4,1,46,4132,0,3,390,123,H
2022-12-02T18:33:07Z,98n9czmc,serial-reaction-time,1,R,4,1,47,4132,0,1,403.2999999523163,231,L
2022-12-02T18:33:07Z,98n9czmc,serial-reaction-time,NA,P,4,1,48,4132,0,2,294.2999999523163,312,H
2022-12-02T18:33:08Z,98n9czmc,serial-reaction-time,1,P,4,0,48,4132,0,2,567.0999999046326,312,H
2022-12-02T18:33:08Z,98n9czmc,serial-reaction-time,1,R,4,1,49,4132,0,1,370.39999985694885,121,T
2022-12-02T18:33:09Z,98n9czmc,serial-reaction-time,1,P,4,1,50,4132,0,4,433,214,H
2022-12-02T18:33:09Z,98n9czmc,serial-reaction-time,1,R,4,1,51,4132,0,1,483.40000009536743,141,T
2022-12-02T18:33:10Z,98n9czmc,serial-reaction-time,1,P,4,1,52,4132,0,1,383.30000019073486,411,H
2022-12-02T18:33:10Z,98n9czmc,serial-reaction-time,1,R,4,1,53,4132,0,1,326.2000000476837,111,R
2022-12-02T18:33:11Z,98n9czmc,serial-reaction-time,1,P,4,1,54,4132,0,3,380.19999980926514,113,H
2022-12-02T18:33:11Z,98n9czmc,serial-reaction-time,1,R,4,1,55,4132,0,4,385.7999999523163,134,L
2022-12-02T18:33:12Z,98n9czmc,serial-reaction-time,1,P,4,1,56,4132,0,2,413.7999999523163,342,H
2022-12-02T18:33:13Z,98n9czmc,serial-reaction-time,1,R,4,1,57,4132,0,1,422.89999985694885,421,H
2022-12-02T18:33:13Z,98n9czmc,serial-reaction-time,NA,P,4,1,58,4132,0,4,617.2000000476837,214,H
2022-12-02T18:33:14Z,98n9czmc,serial-reaction-time,1,P,4,0,58,4132,0,4,988.2000000476836,214,H
2022-12-02T18:33:14Z,98n9czmc,serial-reaction-time,1,R,4,1,59,4132,0,4,376.59999990463257,144,L
2022-12-02T18:33:15Z,98n9czmc,serial-reaction-time,1,P,4,1,60,4132,0,1,498.2999999523163,441,H
2022-12-02T18:33:15Z,98n9czmc,serial-reaction-time,1,R,4,1,61,4132,0,3,433.2999999523163,413,L
2022-12-02T18:33:16Z,98n9czmc,serial-reaction-time,1,P,4,1,62,4132,0,3,362.2999999523163,133,H
2022-12-02T18:33:16Z,98n9czmc,serial-reaction-time,1,R,4,1,63,4132,0,1,390.7000000476837,331,L
2022-12-02T18:33:17Z,98n9czmc,serial-reaction-time,1,P,4,1,64,4132,0,2,434,312,H
2022-12-02T18:33:17Z,98n9czmc,serial-reaction-time,1,R,4,1,65,4132,0,2,407.59999990463257,122,L
2022-12-02T18:33:18Z,98n9czmc,serial-reaction-time,1,P,4,1,66,4132,0,4,357.7000000476837,224,H
2022-12-02T18:33:18Z,98n9czmc,serial-reaction-time,1,R,4,1,67,4132,0,4,263.19999980926514,244,H
2022-12-02T18:33:19Z,98n9czmc,serial-reaction-time,1,P,4,1,68,4132,0,1,381.7000000476837,441,H
2022-12-02T18:33:19Z,98n9czmc,serial-reaction-time,1,R,4,1,69,4132,0,4,391.7000000476837,414,T
2022-12-02T18:33:20Z,98n9czmc,serial-reaction-time,1,P,4,1,70,4132,0,3,464.5,143,H
2022-12-02T18:33:21Z,98n9czmc,serial-reaction-time,1,R,4,1,71,4132,0,1,390.2999999523163,431,H
2022-12-02T18:33:21Z,98n9czmc,serial-reaction-time,1,P,4,1,72,4132,0,2,378,312,H
2022-12-02T18:33:22Z,98n9czmc,serial-reaction-time,1,R,4,1,73,4132,0,3,381.30000019073486,123,H
2022-12-02T18:33:22Z,98n9czmc,serial-reaction-time,1,P,4,1,74,4132,0,4,356,234,H
2022-12-02T18:33:23Z,98n9czmc,serial-reaction-time,1,R,4,1,75,4132,0,4,340,344,L
2022-12-02T18:33:23Z,98n9czmc,serial-reaction-time,1,P,4,1,76,4132,0,1,369.80000019073486,441,H
2022-12-02T18:33:24Z,98n9czmc,serial-reaction-time,1,R,4,1,77,4132,0,3,397.2999999523163,413,L
2022-12-02T18:33:24Z,98n9czmc,serial-reaction-time,1,P,4,1,78,4132,0,3,381.59999990463257,133,H
2022-12-02T18:33:25Z,98n9czmc,serial-reaction-time,1,R,4,1,79,4132,0,2,522.3999998569489,332,H
2022-12-02T18:33:25Z,98n9czmc,serial-reaction-time,1,P,4,1,80,4132,0,2,264,322,H
2022-12-02T18:33:30Z,98n9czmc,html-keyboard-response,NA,NA,NA,NA,NA,NA,NA,NA,NA,NA,NA
2022-12-02T18:33:52Z,98n9czmc,html-keyboard-response,NA,NA,NA,NA,NA,NA,NA,NA,NA,NA,NA
2022-12-02T18:33:53Z,98n9czmc,serial-reaction-time,1,R,5,1,1,4132,0,3,399.2999999523163,3,X
2022-12-02T18:33:54Z,98n9czmc,serial-reaction-time,1,P,5,1,2,4132,0,4,346.09999990463257,34,X
2022-12-02T18:33:54Z,98n9czmc,serial-reaction-time,1,R,5,1,3,4132,0,3,312.10000014305115,343,T
2022-12-02T18:33:55Z,98n9czmc,serial-reaction-time,1,P,5,1,4,4132,0,1,358.2999999523163,431,H
2022-12-02T18:33:55Z,98n9czmc,serial-reaction-time,1,R,5,1,5,4132,0,4,363.7000000476837,314,L
2022-12-02T18:33:56Z,98n9czmc,serial-reaction-time,1,P,5,1,6,4132,0,3,365.09999990463257,143,H
2022-12-02T18:33:56Z,98n9czmc,serial-reaction-time,1,R,5,1,7,4132,0,2,328.5,432,L
2022-12-02T18:33:57Z,98n9czmc,serial-reaction-time,1,P,5,1,8,4132,0,2,287.7999999523163,322,H
2022-12-02T18:33:57Z,98n9czmc,serial-reaction-time,1,R,5,1,9,4132,0,3,337.39999985694885,223,L
2022-12-02T18:33:58Z,98n9czmc,serial-reaction-time,1,P,5,1,10,4132,0,4,330.5,234,H
2022-12-02T18:33:58Z,98n9czmc,serial-reaction-time,1,R,5,1,11,4132,0,1,404,341,L
2022-12-02T18:33:59Z,98n9czmc,serial-reaction-time,1,P,5,1,12,4132,0,1,281.5,411,H
2022-12-02T18:33:59Z,98n9czmc,serial-reaction-time,1,R,5,1,13,4132,0,3,349.89999985694885,113,H
2022-12-02T18:33:59Z,98n9czmc,serial-reaction-time,1,P,5,1,14,4132,0,3,310.80000019073486,133,H
2022-12-02T18:34:00Z,98n9czmc,serial-reaction-time,1,R,5,1,15,4132,0,1,391.5,331,L
2022-12-02T18:34:01Z,98n9czmc,serial-reaction-time,1,P,5,1,16,4132,0,2,454.5,312,H
2022-12-02T18:34:01Z,98n9czmc,serial-reaction-time,1,R,5,1,17,4132,0,3,388.90000009536743,123,H
2022-12-02T18:34:02Z,98n9czmc,serial-reaction-time,1,P,5,1,18,4132,0,4,288,234,H
2022-12-02T18:34:02Z,98n9czmc,serial-reaction-time,1,R,5,1,19,4132,0,2,355,342,H
2022-12-02T18:34:03Z,98n9czmc,serial-reaction-time,1,P,5,1,20,4132,0,1,375.5,421,H
2022-12-02T18:34:03Z,98n9czmc,serial-reaction-time,1,R,5,1,21,4132,0,2,321.7999999523163,212,T
2022-12-02T18:34:03Z,98n9czmc,serial-reaction-time,1,P,5,1,22,4132,0,3,350.39999985694885,123,H
2022-12-02T18:34:04Z,98n9czmc,serial-reaction-time,1,R,5,1,23,4132,0,3,337.7000000476837,233,L
2022-12-02T18:34:04Z,98n9czmc,serial-reaction-time,1,P,5,1,24,4132,0,2,397.59999990463257,332,H
2022-12-02T18:34:05Z,98n9czmc,serial-reaction-time,1,R,5,1,25,4132,0,2,286.40000009536743,322,H
2022-12-02T18:34:05Z,98n9czmc,serial-reaction-time,1,P,5,1,26,4132,0,4,338.89999985694885,224,H
2022-12-02T18:34:06Z,98n9czmc,serial-reaction-time,1,R,5,1,27,4132,0,4,299.10000014305115,244,H
2022-12-02T18:34:06Z,98n9czmc,serial-reaction-time,1,P,5,1,28,4132,0,1,407,441,H
2022-12-02T18:34:07Z,98n9czmc,serial-reaction-time,1,R,5,1,29,4132,0,3,357,413,L
2022-12-02T18:34:07Z,98n9czmc,serial-reaction-time,1,P,5,1,30,4132,0,3,318,133,H
2022-12-02T18:34:08Z,98n9czmc,serial-reaction-time,1,R,5,1,31,4132,0,3,372.7999999523163,333,R
2022-12-02T18:34:08Z,98n9czmc,serial-reaction-time,1,P,5,1,32,4132,0,2,394,332,H
2022-12-02T18:34:09Z,98n9czmc,serial-reaction-time,1,R,5,1,33,4132,0,1,370.40000009536743,321,L
2022-12-02T18:34:09Z,98n9czmc,serial-reaction-time,1,P,5,1,34,4132,0,4,373.7000000476837,214,H
2022-12-02T18:34:10Z,98n9czmc,serial-reaction-time,1,R,5,1,35,4132,0,4,297.5,144,L
2022-12-02T18:34:10Z,98n9czmc,serial-reaction-time,1,P,5,1,36,4132,0,1,385.80000019073486,441,H
2022-12-02T18:34:11Z,98n9czmc,serial-reaction-time,1,R,5,1,37,4132,0,4,406,414,T
2022-12-02T18:34:11Z,98n9czmc,serial-reaction-time,1,P,5,1,38,4132,0,3,445.39999985694885,143,H
2022-12-02T18:34:12Z,98n9czmc,serial-reaction-time,1,R,5,1,39,4132,0,3,331.7000000476837,433,L
2022-12-02T18:34:12Z,98n9czmc,serial-reaction-time,1,P,5,1,40,4132,0,2,343.40000009536743,332,H
2022-12-02T18:34:13Z,98n9czmc,serial-reaction-time,1,R,5,1,41,4132,0,1,361.39999985694885,321,L
2022-12-02T18:34:13Z,98n9czmc,serial-reaction-time,1,P,5,1,42,4132,0,4,392.39999985694885,214,H
2022-12-02T18:34:14Z,98n9czmc,serial-reaction-time,1,R,5,1,43,4132,0,3,386.39999985694885,143,H
2022-12-02T18:34:14Z,98n9czmc,serial-reaction-time,NA,P,5,1,44,4132,0,1,383.09999990463257,431,H
2022-12-02T18:34:15Z,98n9czmc,serial-reaction-time,1,P,5,0,44,4132,0,1,619.6999998092651,431,H
2022-12-02T18:34:15Z,98n9czmc,serial-reaction-time,1,R,5,1,45,4132,0,4,390.2000000476837,314,L
2022-12-02T18:34:16Z,98n9czmc,serial-reaction-time,1,P,5,1,46,4132,0,3,386.7999999523163,143,H
2022-12-02T18:34:16Z,98n9czmc,serial-reaction-time,1,R,5,1,47,4132,0,2,490.40000009536743,432,L
2022-12-02T18:34:17Z,98n9czmc,serial-reaction-time,1,P,5,1,48,4132,0,2,295.10000014305115,322,H
2022-12-02T18:34:17Z,98n9czmc,serial-reaction-time,1,R,5,1,49,4132,0,1,309.2999999523163,221,L
2022-12-02T18:34:18Z,98n9czmc,serial-reaction-time,1,P,5,1,50,4132,0,4,421.7000000476837,214,H
2022-12-02T18:34:18Z,98n9czmc,serial-reaction-time,1,R,5,1,51,4132,0,3,360.7999999523163,143,H
2022-12-02T18:34:19Z,98n9czmc,serial-reaction-time,1,P,5,1,52,4132,0,1,451.30000019073486,431,H
2022-12-02T18:34:19Z,98n9czmc,serial-reaction-time,1,R,5,1,53,4132,0,3,365.89999985694885,313,T
2022-12-02T18:34:20Z,98n9czmc,serial-reaction-time,1,P,5,1,54,4132,0,3,297.2999999523163,133,H
2022-12-02T18:34:20Z,98n9czmc,serial-reaction-time,1,R,5,1,55,4132,0,3,377.2000000476837,333,R
2022-12-02T18:34:21Z,98n9czmc,serial-reaction-time,NA,P,5,1,56,4132,0,2,331.89999985694885,332,H
2022-12-02T18:34:21Z,98n9czmc,serial-reaction-time,1,P,5,0,56,4132,0,2,624.7999999523163,332,H
2022-12-02T18:34:21Z,98n9czmc,serial-reaction-time,1,R,5,1,57,4132,0,2,227.5,322,H
2022-12-02T18:34:22Z,98n9czmc,serial-reaction-time,1,P,5,1,58,4132,0,4,358.5,224,H
2022-12-02T18:34:22Z,98n9czmc,serial-reaction-time,1,R,5,1,59,4132,0,4,265.2999999523163,244,H
2022-12-02T18:34:23Z,98n9czmc,serial-reaction-time,1,P,5,1,60,4132,0,1,412.7999999523163,441,H
2022-12-02T18:34:23Z,98n9czmc,serial-reaction-time,1,R,5,1,61,4132,0,3,535,413,L
2022-12-02T18:34:24Z,98n9czmc,serial-reaction-time,1,P,5,1,62,4132,0,3,267.60000014305115,133,H
2022-12-02T18:34:24Z,98n9czmc,serial-reaction-time,1,R,5,1,63,4132,0,3,344.09999990463257,333,R
2022-12-02T18:34:25Z,98n9czmc,serial-reaction-time,1,P,5,1,64,4132,0,2,484,332,H
2022-12-02T18:34:25Z,98n9czmc,serial-reaction-time,1,R,5,1,65,4132,0,2,246.59999990463257,322,H
2022-12-02T18:34:26Z,98n9czmc,serial-reaction-time,1,P,5,1,66,4132,0,4,339.90000009536743,224,H
2022-12-02T18:34:26Z,98n9czmc,serial-reaction-time,NA,R,5,1,67,4132,0,3,232.79999995231628,243,L
2022-12-02T18:34:27Z,98n9czmc,serial-reaction-time,1,R,5,0,67,4132,0,3,569.9000000953674,243,L
2022-12-02T18:34:27Z,98n9czmc,serial-reaction-time,1,P,5,1,68,4132,0,1,426.40000009536743,431,H
2022-12-02T18:34:28Z,98n9czmc,serial-reaction-time,1,R,5,1,69,4132,0,4,428,314,L
2022-12-02T18:34:28Z,98n9czmc,serial-reaction-time,1,P,5,1,70,4132,0,3,443.09999990463257,143,H
2022-12-02T18:34:29Z,98n9czmc,serial-reaction-time,1,R,5,1,71,4132,0,3,314.10000014305115,433,L
2022-12-02T18:34:29Z,98n9czmc,serial-reaction-time,1,P,5,1,72,4132,0,2,275.90000009536743,332,H
2022-12-02T18:34:29Z,98n9czmc,serial-reaction-time,NA,R,5,1,73,4132,0,3,249,323,T
2022-12-02T18:34:30Z,98n9czmc,serial-reaction-time,1,R,5,0,73,4132,0,3,461,323,T
2022-12-02T18:34:30Z,98n9czmc,serial-reaction-time,1,P,5,1,74,4132,0,4,382.5,234,H
2022-12-02T18:34:31Z,98n9czmc,serial-reaction-time,1,R,5,1,75,4132,0,3,456.5,343,T
2022-12-02T18:34:31Z,98n9czmc,serial-reaction-time,1,P,5,1,76,4132,0,1,533.2000000476837,431,H
2022-12-02T18:34:32Z,98n9czmc,serial-reaction-time,1,R,5,1,77,4132,0,3,400.39999985694885,313,T
2022-12-02T18:34:32Z,98n9czmc,serial-reaction-time,1,P,5,1,78,4132,0,3,253.8000001907349,133,H
2022-12-02T18:34:33Z,98n9czmc,serial-reaction-time,1,R,5,1,79,4132,0,2,454.10000014305115,332,H
2022-12-02T18:34:33Z,98n9czmc,serial-reaction-time,1,P,5,1,80,4132,0,2,244.89999985694885,322,H
2022-12-02T18:34:38Z,98n9czmc,html-keyboard-response,NA,NA,NA,NA,NA,NA,NA,NA,NA,NA,NA
2022-12-02T18:34:41Z,98n9czmc,html-keyboard-response,NA,NA,NA,NA,NA,NA,NA,NA,NA,NA,NA
2022-12-02T18:34:42Z,98n9czmc,fullscreen,NA,NA,NA,NA,NA,NA,NA,NA,NA,NA,NA
2022-12-02T18:54:19Z,zy448n7y,fullscreen,NA,NA,NA,NA,NA,NA,NA,NA,NA,NA,NA
2022-12-02T18:54:24Z,zy448n7y,html-keyboard-response,NA,NA,NA,NA,NA,NA,NA,NA,NA,NA,NA
2022-12-02T18:54:26Z,zy448n7y,serial-reaction-time,1,R,1,1,1,2314,0,2,561.6999999992549,2,X
2022-12-02T18:54:26Z,zy448n7y,serial-reaction-time,1,P,1,1,2,2314,0,2,275.79999999701977,22,X
2022-12-02T18:54:27Z,zy448n7y,serial-reaction-time,1,R,1,1,3,2314,0,4,477,224,L
2022-12-02T18:54:27Z,zy448n7y,serial-reaction-time,NA,P,1,1,4,2314,0,3,201.90000000223517,243,H
2022-12-02T18:54:28Z,zy448n7y,serial-reaction-time,1,P,1,0,4,2314,0,3,429.0000000037253,243,H
2022-12-02T18:54:28Z,zy448n7y,serial-reaction-time,NA,R,1,1,5,2314,0,2,207.39999999850988,432,H
2022-12-02T18:54:28Z,zy448n7y,serial-reaction-time,1,R,1,0,5,2314,0,2,443.4999999962747,432,H
2022-12-02T18:54:29Z,zy448n7y,serial-reaction-time,1,P,1,1,6,2314,0,1,521.8000000007451,321,H
2022-12-02T18:54:29Z,zy448n7y,serial-reaction-time,1,R,1,1,7,2314,0,1,224.10000000149012,211,L
2022-12-02T18:54:30Z,zy448n7y,serial-reaction-time,NA,P,1,1,8,2314,0,4,361.30000000074506,114,H
2022-12-02T18:54:30Z,zy448n7y,serial-reaction-time,1,P,1,0,8,2314,0,4,569.2000000029802,114,H
2022-12-02T18:54:30Z,zy448n7y,serial-reaction-time,1,R,1,1,9,2314,0,2,394,142,L
2022-12-02T18:54:31Z,zy448n7y,serial-reaction-time,1,P,1,1,10,2314,0,2,214.5,422,H
2022-12-02T18:54:31Z,zy448n7y,serial-reaction-time,1,R,1,1,11,2314,0,2,272.8999999985099,222,R
2022-12-02T18:54:32Z,zy448n7y,serial-reaction-time,1,P,1,1,12,2314,0,3,444,223,H
2022-12-02T18:54:32Z,zy448n7y,serial-reaction-time,1,R,1,1,13,2314,0,4,351.70000000298023,234,L
2022-12-02T18:54:33Z,zy448n7y,serial-reaction-time,1,P,1,1,14,2314,0,1,440.5999999977648,341,H
2022-12-02T18:54:33Z,zy448n7y,serial-reaction-time,NA,R,1,1,15,2314,0,2,236.80000000074503,412,H
2022-12-02T18:54:34Z,zy448n7y,serial-reaction-time,NA,R,1,0,15,2314,0,2,465.9000000022352,412,H
2022-12-02T18:54:34Z,zy448n7y,serial-reaction-time,1,R,1,0,15,2314,0,2,584.6000000014901,412,H
2022-12-02T18:54:34Z,zy448n7y,serial-reaction-time,NA,P,1,1,16,2314,0,4,135.89999999850988,124,H
2022-12-02T18:54:34Z,zy448n7y,serial-reaction-time,1,P,1,0,16,2314,0,4,444.8999999985099,124,H
2022-12-02T18:54:35Z,zy448n7y,serial-reaction-time,1,R,1,1,17,2314,0,1,495.4000000022352,241,L
2022-12-02T18:54:35Z,zy448n7y,serial-reaction-time,NA,P,1,1,18,2314,0,2,265.69999999925494,412,H
2022-12-02T18:54:35Z,zy448n7y,serial-reaction-time,1,P,1,0,18,2314,0,2,426.69999999925494,412,H
2022-12-02T18:54:36Z,zy448n7y,serial-reaction-time,1,R,1,1,19,2314,0,4,566.5,124,H
2022-12-02T18:54:37Z,zy448n7y,serial-reaction-time,1,P,1,1,20,2314,0,3,462.5999999977648,243,H
2022-12-02T18:54:37Z,zy448n7y,serial-reaction-time,1,R,1,1,21,2314,0,1,448.3999999985099,431,L
2022-12-02T18:54:38Z,zy448n7y,serial-reaction-time,1,P,1,1,22,2314,0,1,267.69999999925494,311,H
2022-12-02T18:54:38Z,zy448n7y,serial-reaction-time,1,R,1,1,23,2314,0,1,296.6000000014901,111,R
2022-12-02T18:54:39Z,zy448n7y,serial-reaction-time,NA,P,1,1,24,2314,0,4,357.4000000022352,114,H
2022-12-02T18:54:39Z,zy448n7y,serial-reaction-time,1,P,1,0,24,2314,0,4,552.8000000007451,114,H
2022-12-02T18:54:39Z,zy448n7y,serial-reaction-time,1,R,1,1,25,2314,0,2,413.29999999701977,142,L
2022-12-02T18:54:40Z,zy448n7y,serial-reaction-time,1,P,1,1,26,2314,0,2,211.69999999925497,422,H
2022-12-02T18:54:40Z,zy448n7y,serial-reaction-time,1,R,1,1,27,2314,0,1,418.8999999985099,221,L
2022-12-02T18:54:41Z,zy448n7y,serial-reaction-time,1,P,1,1,28,2314,0,3,505.20000000298023,213,H
2022-12-02T18:54:41Z,zy448n7y,serial-reaction-time,1,R,1,1,29,2314,0,3,245.89999999850988,133,L
2022-12-02T18:54:42Z,zy448n7y,serial-reaction-time,1,P,1,1,30,2314,0,1,391.5,331,H
2022-12-02T18:54:42Z,zy448n7y,serial-reaction-time,1,R,1,1,31,2314,0,3,419.4000000022352,313,T
2022-12-02T18:54:43Z,zy448n7y,serial-reaction-time,1,P,1,1,32,2314,0,4,523.7000000029802,134,H
2022-12-02T18:54:44Z,zy448n7y,serial-reaction-time,1,R,1,1,33,2314,0,4,264.6000000014901,344,L
2022-12-02T18:54:44Z,zy448n7y,serial-reaction-time,1,P,1,1,34,2314,0,2,520.1000000014901,442,H
2022-12-02T18:54:45Z,zy448n7y,serial-reaction-time,1,R,1,1,35,2314,0,2,243.89999999850988,422,H
2022-12-02T18:54:45Z,zy448n7y,serial-reaction-time,1,P,1,1,36,2314,0,3,494.1000000014901,223,H
2022-12-02T18:54:46Z,zy448n7y,serial-reaction-time,NA,R,1,1,37,2314,0,4,203.90000000223517,234,L
2022-12-02T18:54:46Z,zy448n7y,serial-reaction-time,1,R,1,0,37,2314,0,4,436,234,L
2022-12-02T18:54:46Z,zy448n7y,serial-reaction-time,1,P,1,1,38,2314,0,1,464.80000000074506,341,H
2022-12-02T18:54:47Z,zy448n7y,serial-reaction-time,1,R,1,1,39,2314,0,3,452.5999999977648,413,L
2022-12-02T18:54:48Z,zy448n7y,serial-reaction-time,1,P,1,1,40,2314,0,4,528.7999999970198,134,H
2022-12-02T18:54:48Z,zy448n7y,serial-reaction-time,1,R,1,1,41,2314,0,1,494.3999999985099,341,H
2022-12-02T18:54:49Z,zy448n7y,serial-reaction-time,1,P,1,1,42,2314,0,2,413.69999999925494,412,H
2022-12-02T18:54:50Z,zy448n7y,serial-reaction-time,1,R,1,1,43,2314,0,4,528.6999999992549,124,H
2022-12-02T18:54:50Z,zy448n7y,serial-reaction-time,1,P,1,1,44,2314,0,3,382.5999999977648,243,H
2022-12-02T18:54:51Z,zy448n7y,serial-reaction-time,1,R,1,1,45,2314,0,4,434.5999999977648,434,T
2022-12-02T18:54:51Z,zy448n7y,serial-reaction-time,1,P,1,1,46,2314,0,1,541.0999999977648,341,H
2022-12-02T18:54:52Z,zy448n7y,serial-reaction-time,1,R,1,1,47,2314,0,3,459.4000000022352,413,L
2022-12-02T18:54:52Z,zy448n7y,serial-reaction-time,1,P,1,1,48,2314,0,4,451.80000000074506,134,H
2022-12-02T18:54:53Z,zy448n7y,serial-reaction-time,1,R,1,1,49,2314,0,2,841.6999999992549,342,L
2022-12-02T18:54:54Z,zy448n7y,serial-reaction-time,1,P,1,1,50,2314,0,2,362.0999999977648,422,H
2022-12-02T18:54:54Z,zy448n7y,serial-reaction-time,1,R,1,1,51,2314,0,3,404.6000000014901,223,H
2022-12-02T18:54:55Z,zy448n7y,serial-reaction-time,1,P,1,1,52,2314,0,3,260.19999999925494,233,H
2022-12-02T18:54:55Z,zy448n7y,serial-reaction-time,1,R,1,1,53,2314,0,2,418.29999999701977,332,L
2022-12-02T18:54:56Z,zy448n7y,serial-reaction-time,1,P,1,1,54,2314,0,1,440.4000000022352,321,H
2022-12-02T18:54:57Z,zy448n7y,serial-reaction-time,1,R,1,1,55,2314,0,2,495.19999999925494,212,T
2022-12-02T18:54:57Z,zy448n7y,serial-reaction-time,1,P,1,1,56,2314,0,4,545.3999999985099,124,H
2022-12-02T18:54:58Z,zy448n7y,serial-reaction-time,1,R,1,1,57,2314,0,1,536.3999999985099,241,L
2022-12-02T18:54:59Z,zy448n7y,serial-reaction-time,1,P,1,1,58,2314,0,2,508.19999999925494,412,H
2022-12-02T18:54:59Z,zy448n7y,serial-reaction-time,1,R,1,1,59,2314,0,2,317.9000000022352,122,L
2022-12-02T18:55:00Z,zy448n7y,serial-reaction-time,1,P,1,1,60,2314,0,3,433.1000000014901,223,H
2022-12-02T18:55:01Z,zy448n7y,serial-reaction-time,1,R,1,1,61,2314,0,4,798.2000000029802,234,L
2022-12-02T18:55:01Z,zy448n7y,serial-reaction-time,1,P,1,1,62,2314,0,1,556.8000000007451,341,H
2022-12-02T18:55:02Z,zy448n7y,serial-reaction-time,1,R,1,1,63,2314,0,1,300.5,411,L
2022-12-02T18:55:02Z,zy448n7y,serial-reaction-time,1,P,1,1,64,2314,0,4,614.3999999985099,114,H
2022-12-02T18:55:03Z,zy448n7y,serial-reaction-time,1,R,1,1,65,2314,0,3,447.6000000014901,143,L
2022-12-02T18:55:04Z,zy448n7y,serial-reaction-time,1,P,1,1,66,2314,0,2,562.1999999992549,432,H
2022-12-02T18:55:04Z,zy448n7y,serial-reaction-time,1,R,1,1,67,2314,0,2,304.4000000022352,322,L
2022-12-02T18:55:05Z,zy448n7y,serial-reaction-time,1,P,1,1,68,2314,0,3,452.19999999925494,223,H
2022-12-02T18:55:05Z,zy448n7y,serial-reaction-time,1,R,1,1,69,2314,0,4,485.4000000022352,234,L
2022-12-02T18:55:06Z,zy448n7y,serial-reaction-time,1,P,1,1,70,2314,0,1,434.0999999977648,341,H
2022-12-02T18:55:06Z,zy448n7y,serial-reaction-time,1,R,1,1,71,2314,0,1,259.5999999977648,411,L
2022-12-02T18:55:07Z,zy448n7y,serial-reaction-time,1,P,1,1,72,2314,0,4,490.69999999925494,114,H
2022-12-02T18:55:08Z,zy448n7y,serial-reaction-time,1,R,1,1,73,2314,0,2,432.6000000014901,142,L
2022-12-02T18:55:08Z,zy448n7y,serial-reaction-time,1,P,1,1,74,2314,0,2,274.5,422,H
2022-12-02T18:55:09Z,zy448n7y,serial-reaction-time,1,R,1,1,75,2314,0,1,474.1000000014901,221,L
2022-12-02T18:55:09Z,zy448n7y,serial-reaction-time,1,P,1,1,76,2314,0,3,517.8999999985099,213,H
2022-12-02T18:55:10Z,zy448n7y,serial-reaction-time,1,R,1,1,77,2314,0,3,288.19999999925494,133,L
2022-12-02T18:55:10Z,zy448n7y,serial-reaction-time,1,P,1,1,78,2314,0,1,346.9000000022352,331,H
2022-12-02T18:55:11Z,zy448n7y,serial-reaction-time,1,R,1,1,79,2314,0,3,417.19999999925494,313,T
2022-12-02T18:55:11Z,zy448n7y,serial-reaction-time,1,P,1,1,80,2314,0,4,457.5999999977648,134,H
2022-12-02T18:55:16Z,zy448n7y,html-keyboard-response,NA,NA,NA,NA,NA,NA,NA,NA,NA,NA,NA
2022-12-02T18:55:17Z,zy448n7y,html-keyboard-response,NA,NA,NA,NA,NA,NA,NA,NA,NA,NA,NA
2022-12-02T18:55:18Z,zy448n7y,serial-reaction-time,NA,R,2,1,1,2314,0,3,411,3,X
2022-12-02T18:55:19Z,zy448n7y,serial-reaction-time,1,R,2,0,1,2314,0,3,517.8000000007451,3,X
2022-12-02T18:55:19Z,zy448n7y,serial-reaction-time,1,P,2,1,2,2314,0,2,434.4000000022352,32,X
2022-12-02T18:55:20Z,zy448n7y,serial-reaction-time,1,R,2,1,3,2314,0,4,491.6000000014901,324,L
2022-12-02T18:55:20Z,zy448n7y,serial-reaction-time,1,P,2,1,4,2314,0,3,409.3999999985099,243,H
2022-12-02T18:55:21Z,zy448n7y,serial-reaction-time,1,R,2,1,5,2314,0,3,259.80000000074506,433,L
2022-12-02T18:55:21Z,zy448n7y,serial-reaction-time,NA,P,2,1,6,2314,0,1,554.0999999977648,331,H
2022-12-02T18:55:22Z,zy448n7y,serial-reaction-time,1,P,2,0,6,2314,0,1,742.6999999992549,331,H
2022-12-02T18:55:22Z,zy448n7y,serial-reaction-time,NA,R,2,1,7,2314,0,3,429.80000000074506,313,T
2022-12-02T18:55:22Z,zy448n7y,serial-reaction-time,1,R,2,0,7,2314,0,3,672.6000000014901,313,T
2022-12-02T18:55:23Z,zy448n7y,serial-reaction-time,1,P,2,1,8,2314,0,4,482.69999999925494,134,H
2022-12-02T18:55:23Z,zy448n7y,serial-reaction-time,1,R,2,1,9,2314,0,4,243.80000000074503,344,L
2022-12-02T18:55:24Z,zy448n7y,serial-reaction-time,1,P,2,1,10,2314,0,2,462.1000000014901,442,H
2022-12-02T18:55:25Z,zy448n7y,serial-reaction-time,1,R,2,1,11,2314,0,1,376.69999999925494,421,L
2022-12-02T18:55:25Z,zy448n7y,serial-reaction-time,1,P,2,1,12,2314,0,3,517,213,H
2022-12-02T18:55:26Z,zy448n7y,serial-reaction-time,1,R,2,1,13,2314,0,2,572.2999999970198,132,L
2022-12-02T18:55:27Z,zy448n7y,serial-reaction-time,1,P,2,1,14,2314,0,1,584.3999999985099,321,H
2022-12-02T18:55:27Z,zy448n7y,serial-reaction-time,1,R,2,1,15,2314,0,3,426.80000000074506,213,H
2022-12-02T18:55:28Z,zy448n7y,serial-reaction-time,1,P,2,1,16,2314,0,4,397.69999999925494,134,H
2022-12-02T18:55:28Z,zy448n7y,serial-reaction-time,1,R,2,1,17,2314,0,3,382.1000000014901,343,T
2022-12-02T18:55:29Z,zy448n7y,serial-reaction-time,1,P,2,1,18,2314,0,2,416.5,432,H
2022-12-02T18:55:30Z,zy448n7y,serial-reaction-time,1,R,2,1,19,2314,0,4,605.8999999985099,324,L
2022-12-02T18:55:30Z,zy448n7y,serial-reaction-time,1,P,2,1,20,2314,0,3,411.0999999977648,243,H
2022-12-02T18:55:31Z,zy448n7y,serial-reaction-time,1,R,2,1,21,2314,0,4,359.1000000014901,434,T
2022-12-02T18:55:31Z,zy448n7y,serial-reaction-time,1,P,2,1,22,2314,0,1,459.0999999977648,341,H
2022-12-02T18:55:32Z,zy448n7y,serial-reaction-time,1,R,2,1,23,2314,0,2,417.5999999977648,412,H
2022-12-02T18:55:32Z,zy448n7y,serial-reaction-time,1,P,2,1,24,2314,0,4,566.1999999992549,124,H
2022-12-02T18:55:33Z,zy448n7y,serial-reaction-time,1,R,2,1,25,2314,0,2,403,242,T
2022-12-02T18:55:33Z,zy448n7y,serial-reaction-time,1,P,2,1,26,2314,0,2,316.9000000022352,422,H
2022-12-02T18:55:34Z,zy448n7y,serial-reaction-time,1,R,2,1,27,2314,0,3,378.3999999985099,223,H
2022-12-02T18:55:34Z,zy448n7y,serial-reaction-time,1,P,2,1,28,2314,0,3,266.9000000022352,233,H
2022-12-02T18:55:35Z,zy448n7y,serial-reaction-time,1,R,2,1,29,2314,0,3,329.19999999925494,333,R
2022-12-02T18:55:35Z,zy448n7y,serial-reaction-time,1,P,2,1,30,2314,0,1,521.2999999970198,331,H
2022-12-02T18:55:36Z,zy448n7y,serial-reaction-time,1,R,2,1,31,2314,0,2,506.79999999701977,312,L
2022-12-02T18:55:37Z,zy448n7y,serial-reaction-time,1,P,2,1,32,2314,0,4,586.5,124,H
2022-12-02T18:55:37Z,zy448n7y,serial-reaction-time,1,R,2,1,33,2314,0,4,270.80000000074506,244,L
2022-12-02T18:55:38Z,zy448n7y,serial-reaction-time,1,P,2,1,34,2314,0,2,590.1999999992549,442,H
2022-12-02T18:55:38Z,zy448n7y,serial-reaction-time,1,R,2,1,35,2314,0,2,215,422,H
2022-12-02T18:55:39Z,zy448n7y,serial-reaction-time,1,P,2,1,36,2314,0,3,533.1000000014901,223,H
2022-12-02T18:55:40Z,zy448n7y,serial-reaction-time,1,R,2,1,37,2314,0,4,405.30000000074506,234,L
2022-12-02T18:55:40Z,zy448n7y,serial-reaction-time,1,P,2,1,38,2314,0,1,578.1000000014901,341,H
2022-12-02T18:55:41Z,zy448n7y,serial-reaction-time,NA,R,2,1,39,2314,0,4,401.19999999925494,414,T
2022-12-02T18:55:41Z,zy448n7y,serial-reaction-time,1,R,2,0,39,2314,0,4,669.3999999985099,414,T
2022-12-02T18:55:42Z,zy448n7y,serial-reaction-time,1,P,2,1,40,2314,0,4,324.19999999925494,144,H
2022-12-02T18:55:42Z,zy448n7y,serial-reaction-time,1,R,2,1,41,2314,0,3,372.30000000074506,443,L
2022-12-02T18:55:43Z,zy448n7y,serial-reaction-time,1,P,2,1,42,2314,0,2,499.5,432,H
2022-12-02T18:55:43Z,zy448n7y,serial-reaction-time,1,R,2,1,43,2314,0,1,470.5,321,H
2022-12-02T18:55:44Z,zy448n7y,serial-reaction-time,1,P,2,1,44,2314,0,3,449.0999999977648,213,H
2022-12-02T18:55:45Z,zy448n7y,serial-reaction-time,1,R,2,1,45,2314,0,4,767.1999999992549,134,H
2022-12-02T18:55:46Z,zy448n7y,serial-reaction-time,1,P,2,1,46,2314,0,1,574,341,H
2022-12-02T18:55:46Z,zy448n7y,serial-reaction-time,1,R,2,1,47,2314,0,1,258.69999999925494,411,L
2022-12-02T18:55:47Z,zy448n7y,serial-reaction-time,1,P,2,1,48,2314,0,4,550.3000000007451,114,H
2022-12-02T18:55:47Z,zy448n7y,serial-reaction-time,1,R,2,1,49,2314,0,4,244.30000000074503,144,H
2022-12-02T18:55:48Z,zy448n7y,serial-reaction-time,1,P,2,1,50,2314,0,2,492.69999999925494,442,H
2022-12-02T18:55:48Z,zy448n7y,serial-reaction-time,1,R,2,1,51,2314,0,4,720.6000000014901,424,T
2022-12-02T18:55:49Z,zy448n7y,serial-reaction-time,1,P,2,1,52,2314,0,3,436.80000000074506,243,H
2022-12-02T18:55:50Z,zy448n7y,serial-reaction-time,1,R,2,1,53,2314,0,4,406.70000000298023,434,T
2022-12-02T18:55:50Z,zy448n7y,serial-reaction-time,1,P,2,1,54,2314,0,1,444.4000000022352,341,H
2022-12-02T18:55:51Z,zy448n7y,serial-reaction-time,1,R,2,1,55,2314,0,3,414.5,413,L
2022-12-02T18:55:52Z,zy448n7y,serial-reaction-time,1,P,2,1,56,2314,0,4,680.0999999977648,134,H
2022-12-02T18:55:52Z,zy448n7y,serial-reaction-time,1,R,2,1,57,2314,0,3,432.80000000074506,343,T
2022-12-02T18:55:53Z,zy448n7y,serial-reaction-time,1,P,2,1,58,2314,0,2,619,432,H
2022-12-02T18:55:54Z,zy448n7y,serial-reaction-time,1,R,2,1,59,2314,0,3,579.9000000022352,323,T
2022-12-02T18:55:54Z,zy448n7y,serial-reaction-time,1,P,2,1,60,2314,0,3,307.3999999985099,233,H
2022-12-02T18:55:55Z,zy448n7y,serial-reaction-time,1,R,2,1,61,2314,0,2,647.8000000007451,332,L
2022-12-02T18:55:56Z,zy448n7y,serial-reaction-time,1,P,2,1,62,2314,0,1,600.1999999992549,321,H
2022-12-02T18:55:57Z,zy448n7y,serial-reaction-time,1,R,2,1,63,2314,0,4,997.6999999992548,214,L
2022-12-02T18:55:57Z,zy448n7y,serial-reaction-time,1,P,2,1,64,2314,0,4,334.5,144,H
2022-12-02T18:55:58Z,zy448n7y,serial-reaction-time,1,R,2,1,65,2314,0,3,898.1000000014901,443,L
2022-12-02T18:55:59Z,zy448n7y,serial-reaction-time,1,P,2,1,66,2314,0,2,853.5,432,H
2022-12-02T18:56:00Z,zy448n7y,serial-reaction-time,1,R,2,1,67,2314,0,1,583.8000000007451,321,H
2022-12-02T18:56:00Z,zy448n7y,serial-reaction-time,1,P,2,1,68,2314,0,3,355.8999999985099,213,H
2022-12-02T18:56:01Z,zy448n7y,serial-reaction-time,1,R,2,1,69,2314,0,1,410.19999999925494,131,T
2022-12-02T18:56:01Z,zy448n7y,serial-reaction-time,1,P,2,1,70,2314,0,1,287,311,H
2022-12-02T18:56:02Z,zy448n7y,serial-reaction-time,1,R,2,1,71,2314,0,3,377,113,L
2022-12-02T18:56:02Z,zy448n7y,serial-reaction-time,1,P,2,1,72,2314,0,4,369.19999999925494,134,H
2022-12-02T18:56:03Z,zy448n7y,serial-reaction-time,1,R,2,1,73,2314,0,2,432.80000000074506,342,L
2022-12-02T18:56:03Z,zy448n7y,serial-reaction-time,1,P,2,1,74,2314,0,2,264.4000000022352,422,H
2022-12-02T18:56:04Z,zy448n7y,serial-reaction-time,1,R,2,1,75,2314,0,4,412.1000000014901,224,L
2022-12-02T18:56:04Z,zy448n7y,serial-reaction-time,NA,P,2,1,76,2314,0,3,334.5,243,H
2022-12-02T18:56:05Z,zy448n7y,serial-reaction-time,1,P,2,0,76,2314,0,3,611.0999999977648,243,H
2022-12-02T18:56:05Z,zy448n7y,serial-reaction-time,1,R,2,1,77,2314,0,4,391.8999999985099,434,T
2022-12-02T18:56:06Z,zy448n7y,serial-reaction-time,1,P,2,1,78,2314,0,1,396.30000000074506,341,H
2022-12-02T18:56:06Z,zy448n7y,serial-reaction-time,1,R,2,1,79,2314,0,1,324.8999999985099,411,L
2022-12-02T18:56:07Z,zy448n7y,serial-reaction-time,1,P,2,1,80,2314,0,4,477.69999999925494,114,H
2022-12-02T18:56:12Z,zy448n7y,html-keyboard-response,NA,NA,NA,NA,NA,NA,NA,NA,NA,NA,NA
2022-12-02T18:56:12Z,zy448n7y,html-keyboard-response,NA,NA,NA,NA,NA,NA,NA,NA,NA,NA,NA
2022-12-02T18:56:14Z,zy448n7y,serial-reaction-time,1,R,3,1,1,2314,0,3,400.0999999977648,3,X
2022-12-02T18:56:14Z,zy448n7y,serial-reaction-time,NA,P,3,1,2,2314,0,2,205.59999999776483,32,X
2022-12-02T18:56:14Z,zy448n7y,serial-reaction-time,1,P,3,0,2,2314,0,2,408.79999999701977,32,X
2022-12-02T18:56:15Z,zy448n7y,serial-reaction-time,1,R,3,1,3,2314,0,3,412.80000000074506,323,T
2022-12-02T18:56:15Z,zy448n7y,serial-reaction-time,1,P,3,1,4,2314,0,3,223.89999999850988,233,H
2022-12-02T18:56:16Z,zy448n7y,serial-reaction-time,1,R,3,1,5,2314,0,2,348.6000000014901,332,L
2022-12-02T18:56:16Z,zy448n7y,serial-reaction-time,1,P,3,1,6,2314,0,1,392.5,321,H
2022-12-02T18:56:17Z,zy448n7y,serial-reaction-time,1,R,3,1,7,2314,0,3,436.3999999985099,213,H
2022-12-02T18:56:17Z,zy448n7y,serial-reaction-time,NA,P,3,1,8,2314,0,4,210.90000000223517,134,H
2022-12-02T18:56:17Z,zy448n7y,serial-reaction-time,1,P,3,0,8,2314,0,4,453.4000000022352,134,H
2022-12-02T18:56:18Z,zy448n7y,serial-reaction-time,1,R,3,1,9,2314,0,3,437.19999999925494,343,T
2022-12-02T18:56:19Z,zy448n7y,serial-reaction-time,1,P,3,1,10,2314,0,2,402.20000000298023,432,H
2022-12-02T18:56:19Z,zy448n7y,serial-reaction-time,1,R,3,1,11,2314,0,4,404.0999999977648,324,L
2022-12-02T18:56:20Z,zy448n7y,serial-reaction-time,1,P,3,1,12,2314,0,3,403.0999999977648,243,H
2022-12-02T18:56:20Z,zy448n7y,serial-reaction-time,1,R,3,1,13,2314,0,1,517.2000000029802,431,L
2022-12-02T18:56:21Z,zy448n7y,serial-reaction-time,1,P,3,1,14,2314,0,1,305.69999999925494,311,H
2022-12-02T18:56:21Z,zy448n7y,serial-reaction-time,NA,R,3,1,15,2314,0,4,373.9000000022352,114,H
2022-12-02T18:56:22Z,zy448n7y,serial-reaction-time,1,R,3,0,15,2314,0,4,578.4000000022352,114,H
2022-12-02T18:56:22Z,zy448n7y,serial-reaction-time,1,P,3,1,16,2314,0,4,287.9000000022352,144,H
2022-12-02T18:56:22Z,zy448n7y,serial-reaction-time,1,R,3,1,17,2314,0,2,366.3999999985099,442,H
2022-12-02T18:56:23Z,zy448n7y,serial-reaction-time,1,P,3,1,18,2314,0,2,281.5999999977648,422,H
2022-12-02T18:56:23Z,zy448n7y,serial-reaction-time,1,R,3,1,19,2314,0,3,370.19999999925494,223,H
2022-12-02T18:56:24Z,zy448n7y,serial-reaction-time,1,P,3,1,20,2314,0,3,192.5,233,H
2022-12-02T18:56:24Z,zy448n7y,serial-reaction-time,1,R,3,1,21,2314,0,4,369.5999999977648,334,L
2022-12-02T18:56:25Z,zy448n7y,serial-reaction-time,1,P,3,1,22,2314,0,1,431.5,341,H
2022-12-02T18:56:25Z,zy448n7y,serial-reaction-time,1,R,3,1,23,2314,0,1,235.80000000074503,411,L
2022-12-02T18:56:26Z,zy448n7y,serial-reaction-time,NA,P,3,1,24,2314,0,4,349.6000000014901,114,H
2022-12-02T18:56:26Z,zy448n7y,serial-reaction-time,1,P,3,0,24,2314,0,4,581.8000000007451,114,H
2022-12-02T18:56:26Z,zy448n7y,serial-reaction-time,NA,R,3,1,25,2314,0,2,206.09999999776483,142,L
2022-12-02T18:56:26Z,zy448n7y,serial-reaction-time,1,R,3,0,25,2314,0,2,441.29999999701977,142,L
2022-12-02T18:56:27Z,zy448n7y,serial-reaction-time,1,P,3,1,26,2314,0,2,299.69999999925494,422,H
2022-12-02T18:56:28Z,zy448n7y,serial-reaction-time,1,R,3,1,27,2314,0,4,512.3000000007451,224,L
2022-12-02T18:56:28Z,zy448n7y,serial-reaction-time,1,P,3,1,28,2314,0,3,441.30000000074506,243,H
2022-12-02T18:56:29Z,zy448n7y,serial-reaction-time,1,R,3,1,29,2314,0,2,618,432,H
2022-12-02T18:56:29Z,zy448n7y,serial-reaction-time,1,P,3,1,30,2314,0,1,486.5,321,H
2022-12-02T18:56:30Z,zy448n7y,serial-reaction-time,1,R,3,1,31,2314,0,4,512.5,214,L
2022-12-02T18:56:31Z,zy448n7y,serial-reaction-time,1,P,3,1,32,2314,0,4,289.69999999925494,144,H
2022-12-02T18:56:31Z,zy448n7y,serial-reaction-time,NA,R,3,1,33,2314,0,2,432.29999999701977,442,H
2022-12-02T18:56:31Z,zy448n7y,serial-reaction-time,1,R,3,0,33,2314,0,2,726.1999999955297,442,H
2022-12-02T18:56:32Z,zy448n7y,serial-reaction-time,1,P,3,1,34,2314,0,2,230.79999999701977,422,H
2022-12-02T18:56:32Z,zy448n7y,serial-reaction-time,1,R,3,1,35,2314,0,2,342.5,222,R
2022-12-02T18:56:33Z,zy448n7y,serial-reaction-time,1,P,3,1,36,2314,0,3,402.3999999985099,223,H
2022-12-02T18:56:33Z,zy448n7y,serial-reaction-time,1,R,3,1,37,2314,0,4,387.0999999977648,234,L
2022-12-02T18:56:34Z,zy448n7y,serial-reaction-time,1,P,3,1,38,2314,0,1,504.8999999985099,341,H
2022-12-02T18:56:34Z,zy448n7y,serial-reaction-time,1,R,3,1,39,2314,0,1,250.80000000074503,411,L
2022-12-02T18:56:35Z,zy448n7y,serial-reaction-time,1,P,3,1,40,2314,0,4,558.1000000014901,114,H
2022-12-02T18:56:36Z,zy448n7y,serial-reaction-time,1,R,3,1,41,2314,0,1,689.8000000007451,141,T
2022-12-02T18:56:36Z,zy448n7y,serial-reaction-time,NA,P,3,1,42,2314,0,2,274,412,H
2022-12-02T18:56:37Z,zy448n7y,serial-reaction-time,1,P,3,0,42,2314,0,2,511.80000000074506,412,H
2022-12-02T18:56:37Z,zy448n7y,serial-reaction-time,1,R,3,1,43,2314,0,3,408.70000000298023,123,L
2022-12-02T18:56:38Z,zy448n7y,serial-reaction-time,1,P,3,1,44,2314,0,3,315.30000000074506,233,H
2022-12-02T18:56:38Z,zy448n7y,serial-reaction-time,1,R,3,1,45,2314,0,3,321.80000000074506,333,R
2022-12-02T18:56:39Z,zy448n7y,serial-reaction-time,1,P,3,1,46,2314,0,1,497.5999999977648,331,H
2022-12-02T18:56:39Z,zy448n7y,serial-reaction-time,NA,R,3,1,47,2314,0,2,249.80000000074503,312,L
2022-12-02T18:56:39Z,zy448n7y,serial-reaction-time,1,R,3,0,47,2314,0,2,454.9000000022352,312,L
2022-12-02T18:56:40Z,zy448n7y,serial-reaction-time,1,P,3,1,48,2314,0,4,517.5,124,H
2022-12-02T18:56:40Z,zy448n7y,serial-reaction-time,1,R,3,1,49,2314,0,4,257.1000000014901,244,L
2022-12-02T18:56:41Z,zy448n7y,serial-reaction-time,1,P,3,1,50,2314,0,2,536.9000000022352,442,H
2022-12-02T18:56:41Z,zy448n7y,serial-reaction-time,NA,R,3,1,51,2314,0,1,243.30000000074503,421,L
2022-12-02T18:56:42Z,zy448n7y,serial-reaction-time,1,R,3,0,51,2314,0,1,453.80000000074506,421,L
2022-12-02T18:56:42Z,zy448n7y,serial-reaction-time,1,P,3,1,52,2314,0,3,442.29999999701977,213,H
