datetime,id,trial_type,correct,p_or_r,block,first_response,trial_number,sequence,is_practice,correct_pos,cumulative_rt,actual_triplet,triplet_type
2022-12-05T15:22:07Z,v6fn4eru,fullscreen,NA,NA,NA,NA,NA,NA,NA,NA,NA,NA,NA
2022-12-05T15:22:13Z,v6fn4eru,html-keyboard-response,NA,NA,NA,NA,NA,NA,NA,NA,NA,NA,NA
2022-12-05T15:22:15Z,v6fn4eru,serial-reaction-time,1,R,1,1,1,4321,0,1,295,1,X
2022-12-05T15:22:15Z,v6fn4eru,serial-reaction-time,1,P,1,1,2,4321,0,4,339,14,X
2022-12-05T15:22:16Z,v6fn4eru,serial-reaction-time,1,R,1,1,3,4321,0,3,411,143,L
2022-12-05T15:22:16Z,v6fn4eru,serial-reaction-time,1,P,1,1,4,4321,0,3,375,433,H
2022-12-05T15:22:17Z,v6fn4eru,serial-reaction-time,1,R,1,1,5,4321,0,4,370,334,L
2022-12-05T15:22:17Z,v6fn4eru,serial-reaction-time,NA,P,1,1,6,4321,0,2,336,342,H
2022-12-05T15:22:18Z,v6fn4eru,serial-reaction-time,1,P,1,0,6,4321,0,2,581,342,H
2022-12-05T15:22:18Z,v6fn4eru,serial-reaction-time,1,R,1,1,7,4321,0,3,455,423,H
2022-12-05T15:22:19Z,v6fn4eru,serial-reaction-time,1,P,1,1,8,4321,0,1,408,231,H
2022-12-05T15:22:19Z,v6fn4eru,serial-reaction-time,1,R,1,1,9,4321,0,3,407,313,T
2022-12-05T15:22:20Z,v6fn4eru,serial-reaction-time,1,P,1,1,10,4321,0,4,320,134,H
2022-12-05T15:22:20Z,v6fn4eru,serial-reaction-time,1,R,1,1,11,4321,0,1,377,341,L
2022-12-05T15:22:21Z,v6fn4eru,serial-reaction-time,1,P,1,1,12,4321,0,3,355,413,H
2022-12-05T15:22:21Z,v6fn4eru,serial-reaction-time,1,R,1,1,13,4321,0,3,373,133,L
2022-12-05T15:22:22Z,v6fn4eru,serial-reaction-time,NA,P,1,1,14,4321,0,2,397,332,H
2022-12-05T15:22:22Z,v6fn4eru,serial-reaction-time,1,P,1,0,14,4321,0,2,579,332,H
2022-12-05T15:22:22Z,v6fn4eru,serial-reaction-time,1,R,1,1,15,4321,0,4,405,324,L
2022-12-05T15:22:23Z,v6fn4eru,serial-reaction-time,1,P,1,1,16,4321,0,1,517,241,H
2022-12-05T15:22:24Z,v6fn4eru,serial-reaction-time,1,R,1,1,17,4321,0,2,445,412,L
2022-12-05T15:22:24Z,v6fn4eru,serial-reaction-time,1,P,1,1,18,4321,0,4,424,124,H
2022-12-05T15:22:25Z,v6fn4eru,serial-reaction-time,1,R,1,1,19,4321,0,3,383,243,L
2022-12-05T15:22:25Z,v6fn4eru,serial-reaction-time,1,P,1,1,20,4321,0,3,391,433,H
2022-12-05T15:22:26Z,v6fn4eru,serial-reaction-time,1,R,1,1,21,4321,0,4,371,334,L
2022-12-05T15:22:26Z,v6fn4eru,serial-reaction-time,1,P,1,1,22,4321,0,2,488,342,H
2022-12-05T15:22:27Z,v6fn4eru,serial-reaction-time,1,R,1,1,23,4321,0,2,347,422,L
2022-12-05T15:22:28Z,v6fn4eru,serial-reaction-time,1,P,1,1,24,4321,0,1,459,221,H
2022-12-05T15:22:28Z,v6fn4eru,serial-reaction-time,1,R,1,1,25,4321,0,1,269,211,H
2022-12-05T15:22:28Z,v6fn4eru,serial-reaction-time,NA,P,1,1,26,4321,0,4,285,114,H
2022-12-05T15:22:29Z,v6fn4eru,serial-reaction-time,1,P,1,0,26,4321,0,4,403,114,H
2022-12-05T15:22:29Z,v6fn4eru,serial-reaction-time,1,R,1,1,27,4321,0,2,624,142,L
2022-12-05T15:22:30Z,v6fn4eru,serial-reaction-time,1,P,1,1,28,4321,0,3,453,423,H
2022-12-05T15:22:30Z,v6fn4eru,serial-reaction-time,1,R,1,1,29,4321,0,4,391,234,L
2022-12-05T15:22:31Z,v6fn4eru,serial-reaction-time,1,P,1,1,30,4321,0,2,424,342,H
2022-12-05T15:22:32Z,v6fn4eru,serial-reaction-time,1,R,1,1,31,4321,0,3,587,423,H
2022-12-05T15:22:32Z,v6fn4eru,serial-reaction-time,1,P,1,1,32,4321,0,1,403,231,H
2022-12-05T15:22:33Z,v6fn4eru,serial-reaction-time,1,R,1,1,33,4321,0,1,345,311,L
2022-12-05T15:22:33Z,v6fn4eru,serial-reaction-time,1,P,1,1,34,4321,0,4,401,114,H
2022-12-05T15:22:34Z,v6fn4eru,serial-reaction-time,1,R,1,1,35,4321,0,1,432,141,T
2022-12-05T15:22:34Z,v6fn4eru,serial-reaction-time,1,P,1,1,36,4321,0,3,337,413,H
2022-12-05T15:22:35Z,v6fn4eru,serial-reaction-time,1,R,1,1,37,4321,0,1,368,131,T
2022-12-05T15:22:35Z,v6fn4eru,serial-reaction-time,1,P,1,1,38,4321,0,2,457,312,H
2022-12-05T15:22:36Z,v6fn4eru,serial-reaction-time,1,R,1,1,39,4321,0,4,377,124,H
2022-12-05T15:22:36Z,v6fn4eru,serial-reaction-time,1,P,1,1,40,4321,0,1,321,241,H
2022-12-05T15:22:37Z,v6fn4eru,serial-reaction-time,1,R,1,1,41,4321,0,1,344,411,L
2022-12-05T15:22:38Z,v6fn4eru,serial-reaction-time,1,P,1,1,42,4321,0,4,559,114,H
2022-12-05T15:22:38Z,v6fn4eru,serial-reaction-time,1,R,1,1,43,4321,0,3,417,143,L
2022-12-05T15:22:39Z,v6fn4eru,serial-reaction-time,1,P,1,1,44,4321,0,3,401,433,H
2022-12-05T15:22:39Z,v6fn4eru,serial-reaction-time,1,R,1,1,45,4321,0,3,393,333,R
2022-12-05T15:22:40Z,v6fn4eru,serial-reaction-time,NA,P,1,1,46,4321,0,2,537,332,H
2022-12-05T15:22:40Z,v6fn4eru,serial-reaction-time,1,P,1,0,46,4321,0,2,583,332,H
2022-12-05T15:22:40Z,v6fn4eru,serial-reaction-time,1,R,1,1,47,4321,0,4,377,324,L
2022-12-05T15:22:41Z,v6fn4eru,serial-reaction-time,1,P,1,1,48,4321,0,1,409,241,H
2022-12-05T15:22:41Z,v6fn4eru,serial-reaction-time,NA,R,1,1,49,4321,0,2,273,412,L
2022-12-05T15:22:42Z,v6fn4eru,serial-reaction-time,1,R,1,0,49,4321,0,2,631,412,L
2022-12-05T15:22:42Z,v6fn4eru,serial-reaction-time,1,P,1,1,50,4321,0,4,361,124,H
2022-12-05T15:22:42Z,v6fn4eru,serial-reaction-time,NA,R,1,1,51,4321,0,1,32,241,H
2022-12-05T15:22:43Z,v6fn4eru,serial-reaction-time,1,R,1,0,51,4321,0,1,501,241,H
2022-12-05T15:22:44Z,v6fn4eru,serial-reaction-time,1,P,1,1,52,4321,0,3,745,413,H
2022-12-05T15:22:44Z,v6fn4eru,serial-reaction-time,1,R,1,1,53,4321,0,3,409,133,L
2022-12-05T15:22:45Z,v6fn4eru,serial-reaction-time,1,P,1,1,54,4321,0,2,521,332,H
2022-12-05T15:22:46Z,v6fn4eru,serial-reaction-time,1,R,1,1,55,4321,0,4,481,324,L
2022-12-05T15:22:46Z,v6fn4eru,serial-reaction-time,1,P,1,1,56,4321,0,1,521,241,H
2022-12-05T15:22:47Z,v6fn4eru,serial-reaction-time,1,R,1,1,57,4321,0,2,657,412,L
2022-12-05T15:22:48Z,v6fn4eru,serial-reaction-time,1,P,1,1,58,4321,0,4,440,124,H
2022-12-05T15:22:48Z,v6fn4eru,serial-reaction-time,1,R,1,1,59,4321,0,4,344,244,L
2022-12-05T15:22:49Z,v6fn4eru,serial-reaction-time,1,P,1,1,60,4321,0,3,626,443,H
2022-12-05T15:22:50Z,v6fn4eru,serial-reaction-time,1,R,1,1,61,4321,0,2,713,432,L
2022-12-05T15:22:50Z,v6fn4eru,serial-reaction-time,1,P,1,1,62,4321,0,2,329,322,H
2022-12-05T15:22:51Z,v6fn4eru,serial-reaction-time,1,R,1,1,63,4321,0,4,473,224,L
2022-12-05T15:22:51Z,v6fn4eru,serial-reaction-time,1,P,1,1,64,4321,0,1,433,241,H
2022-12-05T15:22:52Z,v6fn4eru,serial-reaction-time,1,R,1,1,65,4321,0,2,449,412,L
2022-12-05T15:22:53Z,v6fn4eru,serial-reaction-time,1,P,1,1,66,4321,0,4,544,124,H
2022-12-05T15:22:53Z,v6fn4eru,serial-reaction-time,1,R,1,1,67,4321,0,1,425,241,H
2022-12-05T15:22:54Z,v6fn4eru,serial-reaction-time,1,P,1,1,68,4321,0,3,441,413,H
2022-12-05T15:22:54Z,v6fn4eru,serial-reaction-time,1,R,1,1,69,4321,0,3,369,133,L
2022-12-05T15:22:55Z,v6fn4eru,serial-reaction-time,1,P,1,1,70,4321,0,2,582,332,H
2022-12-05T15:22:56Z,v6fn4eru,serial-reaction-time,1,R,1,1,71,4321,0,4,521,324,L
2022-12-05T15:22:56Z,v6fn4eru,serial-reaction-time,1,P,1,1,72,4321,0,1,545,241,H
2022-12-05T15:22:57Z,v6fn4eru,serial-reaction-time,1,R,1,1,73,4321,0,3,569,413,H
2022-12-05T15:22:58Z,v6fn4eru,serial-reaction-time,NA,P,1,1,74,4321,0,4,385,134,H
2022-12-05T15:22:58Z,v6fn4eru,serial-reaction-time,1,P,1,0,74,4321,0,4,496,134,H
2022-12-05T15:22:58Z,v6fn4eru,serial-reaction-time,1,R,1,1,75,4321,0,2,609,342,H
2022-12-05T15:22:59Z,v6fn4eru,serial-reaction-time,1,P,1,1,76,4321,0,3,545,423,H
2022-12-05T15:23:00Z,v6fn4eru,serial-reaction-time,1,R,1,1,77,4321,0,2,537,232,T
2022-12-05T15:23:00Z,v6fn4eru,serial-reaction-time,1,P,1,1,78,4321,0,2,392,322,H
2022-12-05T15:23:01Z,v6fn4eru,serial-reaction-time,1,R,1,1,79,4321,0,3,560,223,L
2022-12-05T15:23:02Z,v6fn4eru,serial-reaction-time,1,P,1,1,80,4321,0,1,408,231,H
2022-12-05T15:23:07Z,v6fn4eru,html-keyboard-response,NA,NA,NA,NA,NA,NA,NA,NA,NA,NA,NA
2022-12-05T15:23:35Z,v6fn4eru,html-keyboard-response,NA,NA,NA,NA,NA,NA,NA,NA,NA,NA,NA
2022-12-05T15:23:36Z,v6fn4eru,serial-reaction-time,1,R,2,1,1,4321,0,4,446,4,X
2022-12-05T15:23:37Z,v6fn4eru,serial-reaction-time,1,P,2,1,2,4321,0,4,313,44,X
2022-12-05T15:23:37Z,v6fn4eru,serial-reaction-time,1,R,2,1,3,4321,0,1,392,441,L
2022-12-05T15:23:38Z,v6fn4eru,serial-reaction-time,1,P,2,1,4,4321,0,3,361,413,H
2022-12-05T15:23:38Z,v6fn4eru,serial-reaction-time,1,R,2,1,5,4321,0,2,457,132,L
2022-12-05T15:23:39Z,v6fn4eru,serial-reaction-time,1,P,2,1,6,4321,0,2,385,322,H
2022-12-05T15:23:39Z,v6fn4eru,serial-reaction-time,1,R,2,1,7,4321,0,4,337,224,L
2022-12-05T15:23:40Z,v6fn4eru,serial-reaction-time,1,P,2,1,8,4321,0,1,369,241,H
2022-12-05T15:23:41Z,v6fn4eru,serial-reaction-time,1,R,2,1,9,4321,0,4,537,414,T
2022-12-05T15:23:41Z,v6fn4eru,serial-reaction-time,1,P,2,1,10,4321,0,4,505,144,H
2022-12-05T15:23:42Z,v6fn4eru,serial-reaction-time,1,R,2,1,11,4321,0,3,416,443,H
2022-12-05T15:23:42Z,v6fn4eru,serial-reaction-time,1,P,2,1,12,4321,0,3,297,433,H
2022-12-05T15:23:43Z,v6fn4eru,serial-reaction-time,1,R,2,1,13,4321,0,2,416,332,H
2022-12-05T15:23:43Z,v6fn4eru,serial-reaction-time,1,P,2,1,14,4321,0,2,337,322,H
2022-12-05T15:23:44Z,v6fn4eru,serial-reaction-time,1,R,2,1,15,4321,0,1,345,221,H
2022-12-05T15:23:44Z,v6fn4eru,serial-reaction-time,1,P,2,1,16,4321,0,1,129,211,H
2022-12-05T15:23:44Z,v6fn4eru,serial-reaction-time,NA,R,2,1,17,4321,0,3,376,113,L
2022-12-05T15:23:45Z,v6fn4eru,serial-reaction-time,1,R,2,0,17,4321,0,3,622,113,L
2022-12-05T15:23:45Z,v6fn4eru,serial-reaction-time,1,P,2,1,18,4321,0,4,368,134,H
2022-12-05T15:23:46Z,v6fn4eru,serial-reaction-time,1,R,2,1,19,4321,0,2,496,342,H
2022-12-05T15:23:46Z,v6fn4eru,serial-reaction-time,NA,P,2,1,20,4321,0,3,433,423,H
2022-12-05T15:23:47Z,v6fn4eru,serial-reaction-time,1,P,2,0,20,4321,0,3,631,423,H
2022-12-05T15:23:47Z,v6fn4eru,serial-reaction-time,1,R,2,1,21,4321,0,4,424,234,L
2022-12-05T15:23:48Z,v6fn4eru,serial-reaction-time,1,P,2,1,22,4321,0,2,568,342,H
2022-12-05T15:23:49Z,v6fn4eru,serial-reaction-time,1,R,2,1,23,4321,0,4,489,424,T
2022-12-05T15:23:49Z,v6fn4eru,serial-reaction-time,1,P,2,1,24,4321,0,1,441,241,H
2022-12-05T15:23:50Z,v6fn4eru,serial-reaction-time,1,R,2,1,25,4321,0,1,377,411,L
2022-12-05T15:23:50Z,v6fn4eru,serial-reaction-time,1,P,2,1,26,4321,0,4,473,114,H
2022-12-05T15:23:50Z,v6fn4eru,serial-reaction-time,NA,R,2,1,27,4321,0,2,81,142,L
2022-12-05T15:23:51Z,v6fn4eru,serial-reaction-time,1,R,2,0,27,4321,0,2,439,142,L
2022-12-05T15:23:52Z,v6fn4eru,serial-reaction-time,1,P,2,1,28,4321,0,3,569,423,H
2022-12-05T15:23:52Z,v6fn4eru,serial-reaction-time,1,R,2,1,29,4321,0,3,353,233,L
2022-12-05T15:23:53Z,v6fn4eru,serial-reaction-time,1,P,2,1,30,4321,0,2,521,332,H
2022-12-05T15:23:53Z,v6fn4eru,serial-reaction-time,1,R,2,1,31,4321,0,2,361,322,H
2022-12-05T15:23:54Z,v6fn4eru,serial-reaction-time,1,P,2,1,32,4321,0,1,425,221,H
2022-12-05T15:23:54Z,v6fn4eru,serial-reaction-time,1,R,2,1,33,4321,0,1,321,211,H
2022-12-05T15:23:55Z,v6fn4eru,serial-reaction-time,1,P,2,1,34,4321,0,4,448,114,H
2022-12-05T15:23:55Z,v6fn4eru,serial-reaction-time,1,R,2,1,35,4321,0,3,506,143,L
2022-12-05T15:23:56Z,v6fn4eru,serial-reaction-time,1,P,2,1,36,4321,0,3,353,433,H
2022-12-05T15:23:56Z,v6fn4eru,serial-reaction-time,1,R,2,1,37,4321,0,3,336,333,R
2022-12-05T15:23:57Z,v6fn4eru,serial-reaction-time,1,P,2,1,38,4321,0,2,417,332,H
2022-12-05T15:23:57Z,v6fn4eru,serial-reaction-time,1,R,2,1,39,4321,0,1,408,321,L
2022-12-05T15:23:58Z,v6fn4eru,serial-reaction-time,1,P,2,1,40,4321,0,1,305,211,H
2022-12-05T15:23:58Z,v6fn4eru,serial-reaction-time,1,R,2,1,41,4321,0,3,329,113,L
2022-12-05T15:23:59Z,v6fn4eru,serial-reaction-time,1,P,2,1,42,4321,0,4,401,134,H
2022-12-05T15:23:59Z,v6fn4eru,serial-reaction-time,1,R,2,1,43,4321,0,2,345,342,H
2022-12-05T15:24:00Z,v6fn4eru,serial-reaction-time,1,P,2,1,44,4321,0,3,809,423,H
2022-12-05T15:24:01Z,v6fn4eru,serial-reaction-time,1,R,2,1,45,4321,0,1,648,231,H
2022-12-05T15:24:02Z,v6fn4eru,serial-reaction-time,1,P,2,1,46,4321,0,2,497,312,H
2022-12-05T15:24:02Z,v6fn4eru,serial-reaction-time,1,R,2,1,47,4321,0,1,472,121,T
2022-12-05T15:24:03Z,v6fn4eru,serial-reaction-time,1,P,2,1,48,4321,0,1,362,211,H
2022-12-05T15:24:03Z,v6fn4eru,serial-reaction-time,1,R,2,1,49,4321,0,3,351,113,L
2022-12-05T15:24:04Z,v6fn4eru,serial-reaction-time,1,P,2,1,50,4321,0,4,374,134,H
2022-12-05T15:24:05Z,v6fn4eru,serial-reaction-time,1,R,2,1,51,4321,0,2,537,342,H
2022-12-05T15:24:05Z,v6fn4eru,serial-reaction-time,1,P,2,1,52,4321,0,3,609,423,H
2022-12-05T15:24:06Z,v6fn4eru,serial-reaction-time,1,R,2,1,53,4321,0,1,442,231,H
2022-12-05T15:24:06Z,v6fn4eru,serial-reaction-time,NA,P,2,1,54,4321,0,2,304,312,H
2022-12-05T15:24:07Z,v6fn4eru,serial-reaction-time,NA,P,2,0,54,4321,0,2,790,312,H
2022-12-05T15:24:07Z,v6fn4eru,serial-reaction-time,1,P,2,0,54,4321,0,2,1436,312,H
2022-12-05T15:24:08Z,v6fn4eru,serial-reaction-time,1,R,2,1,55,4321,0,2,904,122,L
2022-12-05T15:24:09Z,v6fn4eru,serial-reaction-time,1,P,2,1,56,4321,0,1,393,221,H
2022-12-05T15:24:09Z,v6fn4eru,serial-reaction-time,1,R,2,1,57,4321,0,1,345,211,H
2022-12-05T15:24:10Z,v6fn4eru,serial-reaction-time,1,P,2,1,58,4321,0,4,392,114,H
2022-12-05T15:24:10Z,v6fn4eru,serial-reaction-time,1,R,2,1,59,4321,0,4,321,144,H
2022-12-05T15:24:11Z,v6fn4eru,serial-reaction-time,1,P,2,1,60,4321,0,3,377,443,H
2022-12-05T15:24:12Z,v6fn4eru,serial-reaction-time,1,R,2,1,61,4321,0,3,457,433,H
2022-12-05T15:24:12Z,v6fn4eru,serial-reaction-time,1,P,2,1,62,4321,0,2,504,332,H
2022-12-05T15:24:13Z,v6fn4eru,serial-reaction-time,1,R,2,1,63,4321,0,2,657,322,H
2022-12-05T15:24:14Z,v6fn4eru,serial-reaction-time,1,P,2,1,64,4321,0,1,729,221,H
2022-12-05T15:24:15Z,v6fn4eru,serial-reaction-time,1,R,2,1,65,4321,0,2,536,212,T
2022-12-05T15:24:15Z,v6fn4eru,serial-reaction-time,1,P,2,1,66,4321,0,4,497,124,H
2022-12-05T15:24:16Z,v6fn4eru,serial-reaction-time,1,R,2,1,67,4321,0,4,471,244,L
2022-12-05T15:24:16Z,v6fn4eru,serial-reaction-time,NA,P,2,1,68,4321,0,3,536,443,H
2022-12-05T15:24:17Z,v6fn4eru,serial-reaction-time,NA,P,2,0,68,4321,0,3,940,443,H
2022-12-05T15:24:17Z,v6fn4eru,serial-reaction-time,1,P,2,0,68,4321,0,3,1137,443,H
2022-12-05T15:24:18Z,v6fn4eru,serial-reaction-time,1,R,2,1,69,4321,0,1,496,431,L
2022-12-05T15:24:18Z,v6fn4eru,serial-reaction-time,1,P,2,1,70,4321,0,2,465,312,H
2022-12-05T15:24:19Z,v6fn4eru,serial-reaction-time,1,R,2,1,71,4321,0,4,560,124,H
2022-12-05T15:24:20Z,v6fn4eru,serial-reaction-time,1,P,2,1,72,4321,0,1,456,241,H
2022-12-05T15:24:20Z,v6fn4eru,serial-reaction-time,1,R,2,1,73,4321,0,2,545,412,L
2022-12-05T15:24:21Z,v6fn4eru,serial-reaction-time,1,P,2,1,74,4321,0,4,441,124,H
2022-12-05T15:24:21Z,v6fn4eru,serial-reaction-time,1,R,2,1,75,4321,0,2,480,242,T
2022-12-05T15:24:22Z,v6fn4eru,serial-reaction-time,1,P,2,1,76,4321,0,3,625,423,H
2022-12-05T15:24:23Z,v6fn4eru,serial-reaction-time,1,R,2,1,77,4321,0,3,353,233,L
2022-12-05T15:24:23Z,v6fn4eru,serial-reaction-time,1,P,2,1,78,4321,0,2,537,332,H
2022-12-05T15:24:24Z,v6fn4eru,serial-reaction-time,1,R,2,1,79,4321,0,2,352,322,H
2022-12-05T15:24:24Z,v6fn4eru,serial-reaction-time,1,P,2,1,80,4321,0,1,417,221,H
2022-12-05T15:24:29Z,v6fn4eru,html-keyboard-response,NA,NA,NA,NA,NA,NA,NA,NA,NA,NA,NA
2022-12-05T15:24:35Z,v6fn4eru,html-keyboard-response,NA,NA,NA,NA,NA,NA,NA,NA,NA,NA,NA
2022-12-05T15:24:37Z,v6fn4eru,serial-reaction-time,1,R,3,1,1,4321,0,3,480,3,X
2022-12-05T15:24:37Z,v6fn4eru,serial-reaction-time,1,P,3,1,2,4321,0,4,409,34,X
2022-12-05T15:24:38Z,v6fn4eru,serial-reaction-time,1,R,3,1,3,4321,0,1,368,341,L
2022-12-05T15:24:39Z,v6fn4eru,serial-reaction-time,1,P,3,1,4,4321,0,3,433,413,H
2022-12-05T15:24:39Z,v6fn4eru,serial-reaction-time,1,R,3,1,5,4321,0,1,489,131,T
2022-12-05T15:24:40Z,v6fn4eru,serial-reaction-time,1,P,3,1,6,4321,0,2,440,312,H
2022-12-05T15:24:40Z,v6fn4eru,serial-reaction-time,1,R,3,1,7,4321,0,2,417,122,L
2022-12-05T15:24:41Z,v6fn4eru,serial-reaction-time,1,P,3,1,8,4321,0,1,377,221,H
2022-12-05T15:24:41Z,v6fn4eru,serial-reaction-time,1,R,3,1,9,4321,0,2,360,212,T
2022-12-05T15:24:42Z,v6fn4eru,serial-reaction-time,1,P,3,1,10,4321,0,4,369,124,H
2022-12-05T15:24:42Z,v6fn4eru,serial-reaction-time,1,R,3,1,11,4321,0,1,393,241,H
2022-12-05T15:24:43Z,v6fn4eru,serial-reaction-time,1,P,3,1,12,4321,0,3,377,413,H
2022-12-05T15:24:43Z,v6fn4eru,serial-reaction-time,1,R,3,1,13,4321,0,3,416,133,L
2022-12-05T15:24:44Z,v6fn4eru,serial-reaction-time,1,P,3,1,14,4321,0,2,552,332,H
2022-12-05T15:24:45Z,v6fn4eru,serial-reaction-time,1,R,3,1,15,4321,0,1,376,321,L
2022-12-05T15:24:45Z,v6fn4eru,serial-reaction-time,1,P,3,1,16,4321,0,1,425,211,H
2022-12-05T15:24:46Z,v6fn4eru,serial-reaction-time,1,R,3,1,17,4321,0,2,401,112,L
2022-12-05T15:24:46Z,v6fn4eru,serial-reaction-time,1,P,3,1,18,4321,0,4,433,124,H
2022-12-05T15:24:47Z,v6fn4eru,serial-reaction-time,1,R,3,1,19,4321,0,2,585,242,T
2022-12-05T15:24:48Z,v6fn4eru,serial-reaction-time,1,P,3,1,20,4321,0,3,489,423,H
2022-12-05T15:24:48Z,v6fn4eru,serial-reaction-time,1,R,3,1,21,4321,0,3,617,233,L
2022-12-05T15:24:49Z,v6fn4eru,serial-reaction-time,1,P,3,1,22,4321,0,2,593,332,H
2022-12-05T15:24:50Z,v6fn4eru,serial-reaction-time,1,R,3,1,23,4321,0,1,376,321,L
2022-12-05T15:24:50Z,v6fn4eru,serial-reaction-time,1,P,3,1,24,4321,0,1,377,211,H
2022-12-05T15:24:51Z,v6fn4eru,serial-reaction-time,1,R,3,1,25,4321,0,2,489,112,L
2022-12-05T15:24:51Z,v6fn4eru,serial-reaction-time,1,P,3,1,26,4321,0,4,479,124,H
2022-12-05T15:24:52Z,v6fn4eru,serial-reaction-time,1,R,3,1,27,4321,0,4,545,244,L
2022-12-05T15:24:52Z,v6fn4eru,serial-reaction-time,NA,P,3,1,28,4321,0,3,320,443,H
2022-12-05T15:24:53Z,v6fn4eru,serial-reaction-time,1,P,3,0,28,4321,0,3,590,443,H
2022-12-05T15:24:53Z,v6fn4eru,serial-reaction-time,1,R,3,1,29,4321,0,2,417,432,L
2022-12-05T15:24:54Z,v6fn4eru,serial-reaction-time,1,P,3,1,30,4321,0,2,425,322,H
2022-12-05T15:24:54Z,v6fn4eru,serial-reaction-time,1,R,3,1,31,4321,0,1,345,221,H
2022-12-05T15:24:55Z,v6fn4eru,serial-reaction-time,1,P,3,1,32,4321,0,1,327,211,H
2022-12-05T15:24:55Z,v6fn4eru,serial-reaction-time,1,R,3,1,33,4321,0,1,425,111,R
2022-12-05T15:24:56Z,v6fn4eru,serial-reaction-time,1,P,3,1,34,4321,0,4,401,114,H
2022-12-05T15:24:57Z,v6fn4eru,serial-reaction-time,1,R,3,1,35,4321,0,4,489,144,H
2022-12-05T15:24:57Z,v6fn4eru,serial-reaction-time,1,P,3,1,36,4321,0,3,849,443,H
2022-12-05T15:24:59Z,v6fn4eru,serial-reaction-time,1,R,3,1,37,4321,0,2,1233,432,L
2022-12-05T15:24:59Z,v6fn4eru,serial-reaction-time,1,P,3,1,38,4321,0,2,441,322,H
2022-12-05T15:25:00Z,v6fn4eru,serial-reaction-time,NA,R,3,1,39,4321,0,3,480,223,L
2022-12-05T15:25:01Z,v6fn4eru,serial-reaction-time,1,R,3,0,39,4321,0,3,1844,223,L
2022-12-05T15:25:02Z,v6fn4eru,serial-reaction-time,1,P,3,1,40,4321,0,1,537,231,H
2022-12-05T15:25:03Z,v6fn4eru,serial-reaction-time,1,R,3,1,41,4321,0,1,665,311,L
2022-12-05T15:25:04Z,v6fn4eru,serial-reaction-time,1,P,3,1,42,4321,0,4,473,114,H
2022-12-05T15:25:04Z,v6fn4eru,serial-reaction-time,1,R,3,1,43,4321,0,4,441,144,H
2022-12-05T15:25:05Z,v6fn4eru,serial-reaction-time,1,P,3,1,44,4321,0,3,449,443,H
2022-12-05T15:25:05Z,v6fn4eru,serial-reaction-time,1,R,3,1,45,4321,0,3,401,433,H
2022-12-05T15:25:06Z,v6fn4eru,serial-reaction-time,1,P,3,1,46,4321,0,2,504,332,H
2022-12-05T15:25:07Z,v6fn4eru,serial-reaction-time,1,R,3,1,47,4321,0,4,546,324,L
2022-12-05T15:25:07Z,v6fn4eru,serial-reaction-time,1,P,3,1,48,4321,0,1,537,241,H
2022-12-05T15:25:08Z,v6fn4eru,serial-reaction-time,1,R,3,1,49,4321,0,3,464,413,H
2022-12-05T15:25:08Z,v6fn4eru,serial-reaction-time,1,P,3,1,50,4321,0,4,416,134,H
2022-12-05T15:25:09Z,v6fn4eru,serial-reaction-time,1,R,3,1,51,4321,0,1,400,341,L
2022-12-05T15:25:09Z,v6fn4eru,serial-reaction-time,1,P,3,1,52,4321,0,3,377,413,H
2022-12-05T15:25:10Z,v6fn4eru,serial-reaction-time,1,R,3,1,53,4321,0,3,384,133,L
2022-12-05T15:25:11Z,v6fn4eru,serial-reaction-time,1,P,3,1,54,4321,0,2,473,332,H
2022-12-05T15:25:11Z,v6fn4eru,serial-reaction-time,1,R,3,1,55,4321,0,2,336,322,H
2022-12-05T15:25:12Z,v6fn4eru,serial-reaction-time,1,P,3,1,56,4321,0,1,361,221,H
2022-12-05T15:25:12Z,v6fn4eru,serial-reaction-time,1,R,3,1,57,4321,0,1,201,211,H
2022-12-05T15:25:12Z,v6fn4eru,serial-reaction-time,NA,P,3,1,58,4321,0,4,335,114,H
2022-12-05T15:25:13Z,v6fn4eru,serial-reaction-time,1,P,3,0,58,4321,0,4,605,114,H
2022-12-05T15:25:13Z,v6fn4eru,serial-reaction-time,NA,R,3,1,59,4321,0,3,241,143,L
2022-12-05T15:25:13Z,v6fn4eru,serial-reaction-time,1,R,3,0,59,4321,0,3,480,143,L
2022-12-05T15:25:14Z,v6fn4eru,serial-reaction-time,1,P,3,1,60,4321,0,3,417,433,H
2022-12-05T15:25:14Z,v6fn4eru,serial-reaction-time,1,R,3,1,61,4321,0,2,552,332,H
2022-12-05T15:25:15Z,v6fn4eru,serial-reaction-time,1,P,3,1,62,4321,0,2,352,322,H
2022-12-05T15:25:15Z,v6fn4eru,serial-reaction-time,1,R,3,1,63,4321,0,2,345,222,R
2022-12-05T15:25:16Z,v6fn4eru,serial-reaction-time,1,P,3,1,64,4321,0,1,608,221,H
2022-12-05T15:25:17Z,v6fn4eru,serial-reaction-time,1,R,3,1,65,4321,0,2,705,212,T
2022-12-05T15:25:18Z,v6fn4eru,serial-reaction-time,1,P,3,1,66,4321,0,4,409,124,H
2022-12-05T15:25:18Z,v6fn4eru,serial-reaction-time,1,R,3,1,67,4321,0,3,385,243,L
2022-12-05T15:25:19Z,v6fn4eru,serial-reaction-time,1,P,3,1,68,4321,0,3,376,433,H
2022-12-05T15:25:19Z,v6fn4eru,serial-reaction-time,1,R,3,1,69,4321,0,4,400,334,L
2022-12-05T15:25:20Z,v6fn4eru,serial-reaction-time,1,P,3,1,70,4321,0,2,598,342,H
2022-12-05T15:25:21Z,v6fn4eru,serial-reaction-time,1,R,3,1,71,4321,0,2,544,422,L
2022-12-05T15:25:21Z,v6fn4eru,serial-reaction-time,1,P,3,1,72,4321,0,1,368,221,H
2022-12-05T15:25:22Z,v6fn4eru,serial-reaction-time,NA,R,3,1,73,4321,0,2,641,212,T
2022-12-05T15:25:22Z,v6fn4eru,serial-reaction-time,1,R,3,0,73,4321,0,2,983,212,T
2022-12-05T15:25:23Z,v6fn4eru,serial-reaction-time,1,P,3,1,74,4321,0,4,633,124,H
2022-12-05T15:25:24Z,v6fn4eru,serial-reaction-time,1,R,3,1,75,4321,0,1,704,241,H
2022-12-05T15:25:24Z,v6fn4eru,serial-reaction-time,1,P,3,1,76,4321,0,3,473,413,H
2022-12-05T15:25:25Z,v6fn4eru,serial-reaction-time,1,R,3,1,77,4321,0,1,521,131,T
2022-12-05T15:25:26Z,v6fn4eru,serial-reaction-time,1,P,3,1,78,4321,0,2,769,312,H
2022-12-05T15:25:27Z,v6fn4eru,serial-reaction-time,1,R,3,1,79,4321,0,3,953,123,L
2022-12-05T15:25:28Z,v6fn4eru,serial-reaction-time,1,P,3,1,80,4321,0,1,521,231,H
2022-12-05T15:25:33Z,v6fn4eru,html-keyboard-response,NA,NA,NA,NA,NA,NA,NA,NA,NA,NA,NA
2022-12-05T15:25:33Z,v6fn4eru,html-keyboard-response,NA,NA,NA,NA,NA,NA,NA,NA,NA,NA,NA
2022-12-05T15:25:34Z,v6fn4eru,serial-reaction-time,NA,R,4,1,1,4321,0,3,385,3,X
2022-12-05T15:25:35Z,v6fn4eru,serial-reaction-time,1,R,4,0,1,4321,0,3,797,3,X
2022-12-05T15:25:35Z,v6fn4eru,serial-reaction-time,1,P,4,1,2,4321,0,4,417,34,X
2022-12-05T15:25:36Z,v6fn4eru,serial-reaction-time,NA,R,4,1,3,4321,0,1,513,341,L
2022-12-05T15:25:36Z,v6fn4eru,serial-reaction-time,1,R,4,0,3,4321,0,1,742,341,L
2022-12-05T15:25:37Z,v6fn4eru,serial-reaction-time,1,P,4,1,4,4321,0,3,621,413,H
2022-12-05T15:25:38Z,v6fn4eru,serial-reaction-time,1,R,4,1,5,4321,0,3,385,133,L
2022-12-05T15:25:38Z,v6fn4eru,serial-reaction-time,1,P,4,1,6,4321,0,2,448,332,H
2022-12-05T15:25:39Z,v6fn4eru,serial-reaction-time,1,R,4,1,7,4321,0,1,417,321,L
2022-12-05T15:25:39Z,v6fn4eru,serial-reaction-time,1,P,4,1,8,4321,0,1,352,211,H
2022-12-05T15:25:40Z,v6fn4eru,serial-reaction-time,1,R,4,1,9,4321,0,3,377,113,L
2022-12-05T15:25:40Z,v6fn4eru,serial-reaction-time,1,P,4,1,10,4321,0,4,441,134,H
2022-12-05T15:25:41Z,v6fn4eru,serial-reaction-time,1,R,4,1,11,4321,0,1,472,341,L
2022-12-05T15:25:42Z,v6fn4eru,serial-reaction-time,1,P,4,1,12,4321,0,3,801,413,H
2022-12-05T15:25:42Z,v6fn4eru,serial-reaction-time,1,R,4,1,13,4321,0,1,448,131,T
2022-12-05T15:25:43Z,v6fn4eru,serial-reaction-time,1,P,4,1,14,4321,0,2,377,312,H
2022-12-05T15:25:44Z,v6fn4eru,serial-reaction-time,1,R,4,1,15,4321,0,2,370,122,L
2022-12-05T15:25:44Z,v6fn4eru,serial-reaction-time,1,P,4,1,16,4321,0,1,408,221,H
2022-12-05T15:25:45Z,v6fn4eru,serial-reaction-time,1,R,4,1,17,4321,0,4,449,214,L
2022-12-05T15:25:45Z,v6fn4eru,serial-reaction-time,NA,P,4,1,18,4321,0,4,473,144,H
2022-12-05T15:25:46Z,v6fn4eru,serial-reaction-time,1,P,4,0,18,4321,0,4,1414,144,H
2022-12-05T15:25:47Z,v6fn4eru,serial-reaction-time,1,R,4,1,19,4321,0,4,528,444,R
2022-12-05T15:25:48Z,v6fn4eru,serial-reaction-time,1,P,4,1,20,4321,0,3,562,443,H
2022-12-05T15:25:48Z,v6fn4eru,serial-reaction-time,1,R,4,1,21,4321,0,2,625,432,L
2022-12-05T15:25:49Z,v6fn4eru,serial-reaction-time,1,P,4,1,22,4321,0,2,608,322,H
2022-12-05T15:25:50Z,v6fn4eru,serial-reaction-time,1,R,4,1,23,4321,0,2,353,222,R
2022-12-05T15:25:50Z,v6fn4eru,serial-reaction-time,1,P,4,1,24,4321,0,1,345,221,H
2022-12-05T15:25:51Z,v6fn4eru,serial-reaction-time,1,R,4,1,25,4321,0,4,449,214,L
2022-12-05T15:25:51Z,v6fn4eru,serial-reaction-time,1,P,4,1,26,4321,0,4,385,144,H
2022-12-05T15:25:52Z,v6fn4eru,serial-reaction-time,1,R,4,1,27,4321,0,1,424,441,L
2022-12-05T15:25:52Z,v6fn4eru,serial-reaction-time,NA,P,4,1,28,4321,0,3,296,413,H
2022-12-05T15:25:52Z,v6fn4eru,serial-reaction-time,1,P,4,0,28,4321,0,3,471,413,H
2022-12-05T15:25:53Z,v6fn4eru,serial-reaction-time,NA,R,4,1,29,4321,0,1,156,131,T
2022-12-05T15:25:54Z,v6fn4eru,serial-reaction-time,1,R,4,0,29,4321,0,1,1785,131,T
2022-12-05T15:25:55Z,v6fn4eru,serial-reaction-time,1,P,4,1,30,4321,0,2,936,312,H
2022-12-05T15:25:56Z,v6fn4eru,serial-reaction-time,1,R,4,1,31,4321,0,3,585,123,L
2022-12-05T15:25:57Z,v6fn4eru,serial-reaction-time,1,P,4,1,32,4321,0,1,489,231,H
2022-12-05T15:25:57Z,v6fn4eru,serial-reaction-time,1,R,4,1,33,4321,0,2,536,312,H
2022-12-05T15:25:58Z,v6fn4eru,serial-reaction-time,1,P,4,1,34,4321,0,4,569,124,H
2022-12-05T15:25:59Z,v6fn4eru,serial-reaction-time,1,R,4,1,35,4321,0,3,512,243,L
2022-12-05T15:25:59Z,v6fn4eru,serial-reaction-time,1,P,4,1,36,4321,0,3,385,433,H
2022-12-05T15:26:00Z,v6fn4eru,serial-reaction-time,1,R,4,1,37,4321,0,3,345,333,R
2022-12-05T15:26:00Z,v6fn4eru,serial-reaction-time,1,P,4,1,38,4321,0,2,568,332,H
2022-12-05T15:26:01Z,v6fn4eru,serial-reaction-time,1,R,4,1,39,4321,0,4,385,324,L
2022-12-05T15:26:01Z,v6fn4eru,serial-reaction-time,1,P,4,1,40,4321,0,1,441,241,H
2022-12-05T15:26:02Z,v6fn4eru,serial-reaction-time,1,R,4,1,41,4321,0,4,520,414,T
2022-12-05T15:26:03Z,v6fn4eru,serial-reaction-time,1,P,4,1,42,4321,0,4,329,144,H
2022-12-05T15:26:03Z,v6fn4eru,serial-reaction-time,1,R,4,1,43,4321,0,1,489,441,L
2022-12-05T15:26:04Z,v6fn4eru,serial-reaction-time,1,P,4,1,44,4321,0,3,944,413,H
2022-12-05T15:26:05Z,v6fn4eru,serial-reaction-time,1,R,4,1,45,4321,0,1,592,131,T
2022-12-05T15:26:06Z,v6fn4eru,serial-reaction-time,1,P,4,1,46,4321,0,2,561,312,H
2022-12-05T15:26:06Z,v6fn4eru,serial-reaction-time,1,R,4,1,47,4321,0,3,457,123,L
2022-12-05T15:26:07Z,v6fn4eru,serial-reaction-time,1,P,4,1,48,4321,0,1,609,231,H
2022-12-05T15:26:08Z,v6fn4eru,serial-reaction-time,1,R,4,1,49,4321,0,3,503,313,T
2022-12-05T15:26:08Z,v6fn4eru,serial-reaction-time,1,P,4,1,50,4321,0,4,426,134,H
2022-12-05T15:26:09Z,v6fn4eru,serial-reaction-time,1,R,4,1,51,4321,0,4,416,344,L
2022-12-05T15:26:09Z,v6fn4eru,serial-reaction-time,1,P,4,1,52,4321,0,3,503,443,H
2022-12-05T15:26:10Z,v6fn4eru,serial-reaction-time,1,R,4,1,53,4321,0,2,737,432,L
2022-12-05T15:26:11Z,v6fn4eru,serial-reaction-time,1,P,4,1,54,4321,0,2,393,322,H
2022-12-05T15:26:11Z,v6fn4eru,serial-reaction-time,NA,R,4,1,55,4321,0,3,377,223,L
2022-12-05T15:26:12Z,v6fn4eru,serial-reaction-time,1,R,4,0,55,4321,0,3,686,223,L
2022-12-05T15:26:12Z,v6fn4eru,serial-reaction-time,1,P,4,1,56,4321,0,1,521,231,H
2022-12-05T15:26:13Z,v6fn4eru,serial-reaction-time,NA,R,4,1,57,4321,0,4,457,314,L
2022-12-05T15:26:13Z,v6fn4eru,serial-reaction-time,NA,R,4,0,57,4321,0,4,726,314,L
2022-12-05T15:26:13Z,v6fn4eru,serial-reaction-time,1,R,4,0,57,4321,0,4,771,314,L
2022-12-05T15:26:14Z,v6fn4eru,serial-reaction-time,1,P,4,1,58,4321,0,4,337,144,H
2022-12-05T15:26:14Z,v6fn4eru,serial-reaction-time,1,R,4,1,59,4321,0,4,345,444,R
2022-12-05T15:26:15Z,v6fn4eru,serial-reaction-time,1,P,4,1,60,4321,0,3,512,443,H
2022-12-05T15:26:16Z,v6fn4eru,serial-reaction-time,1,R,4,1,61,4321,0,4,481,434,T
2022-12-05T15:26:16Z,v6fn4eru,serial-reaction-time,NA,P,4,1,62,4321,0,2,353,342,H
2022-12-05T15:26:16Z,v6fn4eru,serial-reaction-time,1,P,4,0,62,4321,0,2,606,342,H
2022-12-05T15:26:17Z,v6fn4eru,serial-reaction-time,1,R,4,1,63,4321,0,1,472,421,L
2022-12-05T15:26:17Z,v6fn4eru,serial-reaction-time,1,P,4,1,64,4321,0,1,360,211,H
2022-12-05T15:26:18Z,v6fn4eru,serial-reaction-time,1,R,4,1,65,4321,0,2,656,112,L
2022-12-05T15:26:19Z,v6fn4eru,serial-reaction-time,1,P,4,1,66,4321,0,4,473,124,H
2022-12-05T15:26:19Z,v6fn4eru,serial-reaction-time,1,R,4,1,67,4321,0,3,497,243,L
2022-12-05T15:26:20Z,v6fn4eru,serial-reaction-time,1,P,4,1,68,4321,0,3,360,433,H
2022-12-05T15:26:21Z,v6fn4eru,serial-reaction-time,1,R,4,1,69,4321,0,2,488,332,H
2022-12-05T15:26:21Z,v6fn4eru,serial-reaction-time,1,P,4,1,70,4321,0,2,401,322,H
2022-12-05T15:26:22Z,v6fn4eru,serial-reaction-time,1,R,4,1,71,4321,0,1,441,221,H
2022-12-05T15:26:22Z,v6fn4eru,serial-reaction-time,1,P,4,1,72,4321,0,1,265,211,H
2022-12-05T15:26:22Z,v6fn4eru,serial-reaction-time,1,R,4,1,73,4321,0,1,329,111,R
2022-12-05T15:26:23Z,v6fn4eru,serial-reaction-time,1,P,4,1,74,4321,0,4,449,114,H
2022-12-05T15:26:24Z,v6fn4eru,serial-reaction-time,NA,R,4,1,75,4321,0,2,336,142,L
2022-12-05T15:26:24Z,v6fn4eru,serial-reaction-time,1,R,4,0,75,4321,0,2,445,142,L
2022-12-05T15:26:24Z,v6fn4eru,serial-reaction-time,1,P,4,1,76,4321,0,3,544,423,H
2022-12-05T15:26:25Z,v6fn4eru,serial-reaction-time,NA,R,4,1,77,4321,0,3,512,233,L
2022-12-05T15:26:25Z,v6fn4eru,serial-reaction-time,1,R,4,0,77,4321,0,3,797,233,L
2022-12-05T15:26:26Z,v6fn4eru,serial-reaction-time,1,P,4,1,78,4321,0,2,761,332,H
2022-12-05T15:26:28Z,v6fn4eru,serial-reaction-time,NA,R,4,1,79,4321,0,1,1320,321,L
2022-12-05T15:26:28Z,v6fn4eru,serial-reaction-time,NA,R,4,0,79,4321,0,1,1917,321,L
2022-12-05T15:26:29Z,v6fn4eru,serial-reaction-time,1,R,4,0,79,4321,0,1,2353,321,L
2022-12-05T15:26:29Z,v6fn4eru,serial-reaction-time,1,P,4,1,80,4321,0,1,492,211,H
2022-12-05T15:26:34Z,v6fn4eru,html-keyboard-response,NA,NA,NA,NA,NA,NA,NA,NA,NA,NA,NA
2022-12-05T15:26:51Z,v6fn4eru,html-keyboard-response,NA,NA,NA,NA,NA,NA,NA,NA,NA,NA,NA
2022-12-05T15:26:52Z,v6fn4eru,serial-reaction-time,1,R,5,1,1,4321,0,1,473,1,X
2022-12-05T15:26:53Z,v6fn4eru,serial-reaction-time,1,P,5,1,2,4321,0,4,528,14,X
2022-12-05T15:26:54Z,v6fn4eru,serial-reaction-time,1,R,5,1,3,4321,0,2,472,142,L
2022-12-05T15:26:54Z,v6fn4eru,serial-reaction-time,1,P,5,1,4,4321,0,3,553,423,H
2022-12-05T15:26:55Z,v6fn4eru,serial-reaction-time,1,R,5,1,5,4321,0,2,544,232,T
2022-12-05T15:26:56Z,v6fn4eru,serial-reaction-time,1,P,5,1,6,4321,0,2,441,322,H
2022-12-05T15:26:56Z,v6fn4eru,serial-reaction-time,1,R,5,1,7,4321,0,4,601,224,L
2022-12-05T15:26:57Z,v6fn4eru,serial-reaction-time,1,P,5,1,8,4321,0,1,560,241,H
2022-12-05T15:26:58Z,v6fn4eru,serial-reaction-time,1,R,5,1,9,4321,0,3,672,413,H
2022-12-05T15:26:59Z,v6fn4eru,serial-reaction-time,1,P,5,1,10,4321,0,4,505,134,H
2022-12-05T15:26:59Z,v6fn4eru,serial-reaction-time,1,R,5,1,11,4321,0,2,536,342,H
2022-12-05T15:27:00Z,v6fn4eru,serial-reaction-time,1,P,5,1,12,4321,0,3,577,423,H
2022-12-05T15:27:01Z,v6fn4eru,serial-reaction-time,1,R,5,1,13,4321,0,4,529,234,L
2022-12-05T15:27:01Z,v6fn4eru,serial-reaction-time,1,P,5,1,14,4321,0,2,594,342,H
2022-12-05T15:27:02Z,v6fn4eru,serial-reaction-time,1,R,5,1,15,4321,0,1,520,421,L
2022-12-05T15:27:03Z,v6fn4eru,serial-reaction-time,1,P,5,1,16,4321,0,1,376,211,H
2022-12-05T15:27:03Z,v6fn4eru,serial-reaction-time,1,R,5,1,17,4321,0,3,512,113,L
2022-12-05T15:27:04Z,v6fn4eru,serial-reaction-time,1,P,5,1,18,4321,0,4,480,134,H
2022-12-05T15:27:04Z,v6fn4eru,serial-reaction-time,1,R,5,1,19,4321,0,4,393,344,L
2022-12-05T15:27:05Z,v6fn4eru,serial-reaction-time,1,P,5,1,20,4321,0,3,536,443,H
2022-12-05T15:27:06Z,v6fn4eru,serial-reaction-time,1,R,5,1,21,4321,0,1,520,431,L
2022-12-05T15:27:06Z,v6fn4eru,serial-reaction-time,1,P,5,1,22,4321,0,2,473,312,H
2022-12-05T15:27:07Z,v6fn4eru,serial-reaction-time,1,R,5,1,23,4321,0,2,423,122,L
2022-12-05T15:27:08Z,v6fn4eru,serial-reaction-time,1,P,5,1,24,4321,0,1,593,221,H
2022-12-05T15:27:08Z,v6fn4eru,serial-reaction-time,1,R,5,1,25,4321,0,3,528,213,L
2022-12-05T15:27:09Z,v6fn4eru,serial-reaction-time,1,P,5,1,26,4321,0,4,441,134,H
2022-12-05T15:27:09Z,v6fn4eru,serial-reaction-time,1,R,5,1,27,4321,0,4,385,344,L
2022-12-05T15:27:10Z,v6fn4eru,serial-reaction-time,1,P,5,1,28,4321,0,3,520,443,H
2022-12-05T15:27:11Z,v6fn4eru,serial-reaction-time,1,R,5,1,29,4321,0,3,425,433,H
2022-12-05T15:27:11Z,v6fn4eru,serial-reaction-time,1,P,5,1,30,4321,0,2,489,332,H
2022-12-05T15:27:12Z,v6fn4eru,serial-reaction-time,1,R,5,1,31,4321,0,2,386,322,H
2022-12-05T15:27:12Z,v6fn4eru,serial-reaction-time,1,P,5,1,32,4321,0,1,440,221,H
2022-12-05T15:27:13Z,v6fn4eru,serial-reaction-time,1,R,5,1,33,4321,0,2,704,212,T
2022-12-05T15:27:14Z,v6fn4eru,serial-reaction-time,1,P,5,1,34,4321,0,4,449,124,H
2022-12-05T15:27:14Z,v6fn4eru,serial-reaction-time,1,R,5,1,35,4321,0,1,537,241,H
2022-12-05T15:27:15Z,v6fn4eru,serial-reaction-time,1,P,5,1,36,4321,0,3,504,413,H
2022-12-05T15:27:16Z,v6fn4eru,serial-reaction-time,1,R,5,1,37,4321,0,1,512,131,T
2022-12-05T15:27:16Z,v6fn4eru,serial-reaction-time,1,P,5,1,38,4321,0,2,537,312,H
2022-12-05T15:27:17Z,v6fn4eru,serial-reaction-time,1,R,5,1,39,4321,0,2,553,122,L
2022-12-05T15:27:18Z,v6fn4eru,serial-reaction-time,1,P,5,1,40,4321,0,1,447,221,H
2022-12-05T15:27:18Z,v6fn4eru,serial-reaction-time,1,R,5,1,41,4321,0,3,497,213,L
2022-12-05T15:27:20Z,v6fn4eru,serial-reaction-time,1,P,5,1,42,4321,0,4,1720,134,H
2022-12-05T15:27:21Z,v6fn4eru,serial-reaction-time,1,R,5,1,43,4321,0,4,361,344,L
2022-12-05T15:27:22Z,v6fn4eru,serial-reaction-time,1,P,5,1,44,4321,0,3,953,443,H
2022-12-05T15:27:22Z,v6fn4eru,serial-reaction-time,1,R,5,1,45,4321,0,2,680,432,L
2022-12-05T15:27:23Z,v6fn4eru,serial-reaction-time,1,P,5,1,46,4321,0,2,377,322,H
2022-12-05T15:27:24Z,v6fn4eru,serial-reaction-time,1,R,5,1,47,4321,0,4,481,224,L
2022-12-05T15:27:24Z,v6fn4eru,serial-reaction-time,1,P,5,1,48,4321,0,1,473,241,H
2022-12-05T15:27:25Z,v6fn4eru,serial-reaction-time,1,R,5,1,49,4321,0,4,463,414,T
2022-12-05T15:27:25Z,v6fn4eru,serial-reaction-time,1,P,5,1,50,4321,0,4,440,144,H
2022-12-05T15:27:26Z,v6fn4eru,serial-reaction-time,1,R,5,1,51,4321,0,3,463,443,H
2022-12-05T15:27:27Z,v6fn4eru,serial-reaction-time,1,P,5,1,52,4321,0,3,497,433,H
2022-12-05T15:27:27Z,v6fn4eru,serial-reaction-time,1,R,5,1,53,4321,0,2,624,332,H
2022-12-05T15:27:28Z,v6fn4eru,serial-reaction-time,1,P,5,1,54,4321,0,2,425,322,H
2022-12-05T15:27:29Z,v6fn4eru,serial-reaction-time,1,R,5,1,55,4321,0,4,489,224,L
2022-12-05T15:27:29Z,v6fn4eru,serial-reaction-time,1,P,5,1,56,4321,0,1,552,241,H
2022-12-05T15:27:30Z,v6fn4eru,serial-reaction-time,1,R,5,1,57,4321,0,2,527,412,L
2022-12-05T15:27:31Z,v6fn4eru,serial-reaction-time,1,P,5,1,58,4321,0,4,464,124,H
2022-12-05T15:27:31Z,v6fn4eru,serial-reaction-time,1,R,5,1,59,4321,0,3,449,243,L
2022-12-05T15:27:32Z,v6fn4eru,serial-reaction-time,1,P,5,1,60,4321,0,3,425,433,H
2022-12-05T15:27:32Z,v6fn4eru,serial-reaction-time,1,R,5,1,61,4321,0,2,545,332,H
2022-12-05T15:27:33Z,v6fn4eru,serial-reaction-time,1,P,5,1,62,4321,0,2,529,322,H
2022-12-05T15:27:34Z,v6fn4eru,serial-reaction-time,NA,R,5,1,63,4321,0,3,505,223,L
2022-12-05T15:27:35Z,v6fn4eru,serial-reaction-time,1,R,5,0,63,4321,0,3,2348,223,L
2022-12-05T15:27:36Z,v6fn4eru,serial-reaction-time,1,P,5,1,64,4321,0,1,449,231,H
2022-12-05T15:27:37Z,v6fn4eru,serial-reaction-time,1,R,5,1,65,4321,0,1,385,311,L
2022-12-05T15:27:37Z,v6fn4eru,serial-reaction-time,1,P,5,1,66,4321,0,4,505,114,H
2022-12-05T15:27:38Z,v6fn4eru,serial-reaction-time,1,R,5,1,67,4321,0,4,377,144,H
2022-12-05T15:27:38Z,v6fn4eru,serial-reaction-time,1,P,5,1,68,4321,0,3,544,443,H
2022-12-05T15:27:39Z,v6fn4eru,serial-reaction-time,1,R,5,1,69,4321,0,2,625,432,L
2022-12-05T15:27:40Z,v6fn4eru,serial-reaction-time,1,P,5,1,70,4321,0,2,392,322,H
2022-12-05T15:27:40Z,v6fn4eru,serial-reaction-time,1,R,5,1,71,4321,0,4,456,224,L
2022-12-05T15:27:41Z,v6fn4eru,serial-reaction-time,1,P,5,1,72,4321,0,1,753,241,H
2022-12-05T15:27:42Z,v6fn4eru,serial-reaction-time,1,R,5,1,73,4321,0,4,465,414,T
2022-12-05T15:27:42Z,v6fn4eru,serial-reaction-time,1,P,5,1,74,4321,0,4,352,144,H
2022-12-05T15:27:43Z,v6fn4eru,serial-reaction-time,1,R,5,1,75,4321,0,1,570,441,L
2022-12-05T15:27:44Z,v6fn4eru,serial-reaction-time,NA,P,5,1,76,4321,0,3,541,413,H
2022-12-05T15:27:44Z,v6fn4eru,serial-reaction-time,1,P,5,0,76,4321,0,3,809,413,H
2022-12-05T15:27:45Z,v6fn4eru,serial-reaction-time,1,R,5,1,77,4321,0,2,1015,132,L
2022-12-05T15:27:46Z,v6fn4eru,serial-reaction-time,1,P,5,1,78,4321,0,2,481,322,H
2022-12-05T15:27:47Z,v6fn4eru,serial-reaction-time,1,R,5,1,79,4321,0,3,913,223,L
2022-12-05T15:27:48Z,v6fn4eru,serial-reaction-time,NA,P,5,1,80,4321,0,1,592,231,H
2022-12-05T15:27:48Z,v6fn4eru,serial-reaction-time,1,P,5,0,80,4321,0,1,1028,231,H
2022-12-05T15:27:53Z,v6fn4eru,html-keyboard-response,NA,NA,NA,NA,NA,NA,NA,NA,NA,NA,NA
2022-12-05T15:27:56Z,v6fn4eru,html-keyboard-response,NA,NA,NA,NA,NA,NA,NA,NA,NA,NA,NA
2022-12-05T15:27:57Z,v6fn4eru,fullscreen,NA,NA,NA,NA,NA,NA,NA,NA,NA,NA,NA
2022-12-05T22:24:50Z,nj1xo326,fullscreen,NA,NA,NA,NA,NA,NA,NA,NA,NA,NA,NA
2022-12-05T22:24:53Z,nj1xo326,html-keyboard-response,NA,NA,NA,NA,NA,NA,NA,NA,NA,NA,NA
2022-12-05T22:24:54Z,nj1xo326,serial-reaction-time,1,R,1,1,1,1243,0,4,662.7000000476837,4,X
2022-12-05T22:24:55Z,nj1xo326,serial-reaction-time,NA,P,1,1,2,1243,0,1,442.59999990463257,41,X
2022-12-05T22:24:55Z,nj1xo326,serial-reaction-time,1,P,1,0,2,1243,0,1,510.89999985694885,41,X
2022-12-05T22:24:56Z,nj1xo326,serial-reaction-time,1,R,1,1,3,1243,0,4,503.5,414,T
2022-12-05T22:24:56Z,nj1xo326,serial-reaction-time,1,P,1,1,4,1243,0,2,331.39999997615814,142,H
2022-12-05T22:24:57Z,nj1xo326,serial-reaction-time,1,R,1,1,5,1243,0,4,327.10000002384186,424,T
2022-12-05T22:24:57Z,nj1xo326,serial-reaction-time,1,P,1,1,6,1243,0,4,342.89999997615814,244,H
2022-12-05T22:24:58Z,nj1xo326,serial-reaction-time,1,R,1,1,7,1243,0,3,571.5,443,H
2022-12-05T22:24:58Z,nj1xo326,serial-reaction-time,1,P,1,1,8,1243,0,3,260.3000000715256,433,H
2022-12-05T22:24:59Z,nj1xo326,serial-reaction-time,1,R,1,1,9,1243,0,3,324.89999997615814,333,R
2022-12-05T22:24:59Z,nj1xo326,serial-reaction-time,1,P,1,1,10,1243,0,1,449.6999999284744,331,H
2022-12-05T22:25:00Z,nj1xo326,serial-reaction-time,NA,R,1,1,11,1243,0,3,233.29999995231628,313,T
2022-12-05T22:25:00Z,nj1xo326,serial-reaction-time,1,R,1,0,11,1243,0,3,459.09999990463257,313,T
2022-12-05T22:25:01Z,nj1xo326,serial-reaction-time,1,P,1,1,12,1243,0,2,473.7999999523163,132,H
2022-12-05T22:25:01Z,nj1xo326,serial-reaction-time,1,R,1,1,13,1243,0,4,400.8000000715256,324,L
2022-12-05T22:25:02Z,nj1xo326,serial-reaction-time,1,P,1,1,14,1243,0,4,310.6999999284744,244,H
2022-12-05T22:25:02Z,nj1xo326,serial-reaction-time,1,R,1,1,15,1243,0,3,404.7999999523163,443,H
2022-12-05T22:25:03Z,nj1xo326,serial-reaction-time,1,P,1,1,16,1243,0,3,318.39999997615814,433,H
2022-12-05T22:25:03Z,nj1xo326,serial-reaction-time,1,R,1,1,17,1243,0,3,340.2000000476837,333,R
2022-12-05T22:25:04Z,nj1xo326,serial-reaction-time,1,P,1,1,18,1243,0,1,486.09999990463257,331,H
2022-12-05T22:25:04Z,nj1xo326,serial-reaction-time,1,R,1,1,19,1243,0,3,346.90000009536743,313,T
2022-12-05T22:25:05Z,nj1xo326,serial-reaction-time,1,P,1,1,20,1243,0,2,412.59999990463257,132,H
2022-12-05T22:25:05Z,nj1xo326,serial-reaction-time,1,R,1,1,21,1243,0,1,359.5,321,H
2022-12-05T22:25:06Z,nj1xo326,serial-reaction-time,1,P,1,1,22,1243,0,4,454.2000000476837,214,H
2022-12-05T22:25:06Z,nj1xo326,serial-reaction-time,1,R,1,1,23,1243,0,1,550.6999999284744,141,T
2022-12-05T22:25:07Z,nj1xo326,serial-reaction-time,1,P,1,1,24,1243,0,3,503.09999990463257,413,H
2022-12-05T22:25:08Z,nj1xo326,serial-reaction-time,1,R,1,1,25,1243,0,2,401.2999999523163,132,H
2022-12-05T22:25:09Z,nj1xo326,serial-reaction-time,1,P,1,1,26,1243,0,1,944.3000000715256,321,H
2022-12-05T22:25:09Z,nj1xo326,serial-reaction-time,1,R,1,1,27,1243,0,4,447.39999997615814,214,H
2022-12-05T22:25:10Z,nj1xo326,serial-reaction-time,1,P,1,1,28,1243,0,2,595.7999999523163,142,H
2022-12-05T22:25:11Z,nj1xo326,serial-reaction-time,1,R,1,1,29,1243,0,3,912.600000023842,423,H
2022-12-05T22:25:12Z,nj1xo326,serial-reaction-time,1,P,1,1,30,1243,0,4,444.89999997615814,234,H
2022-12-05T22:25:12Z,nj1xo326,serial-reaction-time,1,R,1,1,31,1243,0,1,429.59999990463257,341,H
2022-12-05T22:25:13Z,nj1xo326,serial-reaction-time,1,P,1,1,32,1243,0,3,368.39999997615814,413,H
2022-12-05T22:25:13Z,nj1xo326,serial-reaction-time,NA,R,1,1,33,1243,0,1,342.5,131,T
2022-12-05T22:25:13Z,nj1xo326,serial-reaction-time,1,R,1,0,33,1243,0,1,382.89999997615814,131,T
2022-12-05T22:25:14Z,nj1xo326,serial-reaction-time,1,P,1,1,34,1243,0,1,324.60000002384186,311,H
2022-12-05T22:25:14Z,nj1xo326,serial-reaction-time,1,R,1,1,35,1243,0,2,384.59999990463257,112,H
2022-12-05T22:25:15Z,nj1xo326,serial-reaction-time,1,P,1,1,36,1243,0,2,345.8000000715256,122,H
2022-12-05T22:25:15Z,nj1xo326,serial-reaction-time,1,R,1,1,37,1243,0,1,424.09999990463257,221,L
2022-12-05T22:25:16Z,nj1xo326,serial-reaction-time,1,P,1,1,38,1243,0,4,405,214,H
2022-12-05T22:25:17Z,nj1xo326,serial-reaction-time,1,R,1,1,39,1243,0,2,735.7000000476837,142,H
2022-12-05T22:25:18Z,nj1xo326,serial-reaction-time,1,P,1,1,40,1243,0,3,727.2000000476837,423,H
2022-12-05T22:25:19Z,nj1xo326,serial-reaction-time,1,R,1,1,41,1243,0,3,810.5,233,L
2022-12-05T22:25:19Z,nj1xo326,serial-reaction-time,1,P,1,1,42,1243,0,1,561.5999999046326,331,H
2022-12-05T22:25:20Z,nj1xo326,serial-reaction-time,1,R,1,1,43,1243,0,3,515.1000000238419,313,T
2022-12-05T22:25:21Z,nj1xo326,serial-reaction-time,NA,P,1,1,44,1243,0,2,491.89999997615814,132,H
2022-12-05T22:25:21Z,nj1xo326,serial-reaction-time,1,P,1,0,44,1243,0,2,954.7999999523164,132,H
2022-12-05T22:25:22Z,nj1xo326,serial-reaction-time,1,R,1,1,45,1243,0,3,403.7000000476837,323,T
2022-12-05T22:25:22Z,nj1xo326,serial-reaction-time,1,P,1,1,46,1243,0,4,348.7000000476837,234,H
2022-12-05T22:25:23Z,nj1xo326,serial-reaction-time,1,R,1,1,47,1243,0,3,374.10000002384186,343,T
2022-12-05T22:25:23Z,nj1xo326,serial-reaction-time,1,P,1,1,48,1243,0,3,326.2999999523163,433,H
2022-12-05T22:25:23Z,nj1xo326,serial-reaction-time,1,R,1,1,49,1243,0,1,337.89999997615814,331,H
2022-12-05T22:25:24Z,nj1xo326,serial-reaction-time,1,P,1,1,50,1243,0,1,341.1999999284744,311,H
2022-12-05T22:25:25Z,nj1xo326,serial-reaction-time,1,R,1,1,51,1243,0,3,546.6999999284744,113,L
2022-12-05T22:25:25Z,nj1xo326,serial-reaction-time,1,P,1,1,52,1243,0,2,409.7999999523163,132,H
2022-12-05T22:25:26Z,nj1xo326,serial-reaction-time,1,R,1,1,53,1243,0,2,303.7000000476837,322,L
2022-12-05T22:25:26Z,nj1xo326,serial-reaction-time,1,P,1,1,54,1243,0,4,338.1999999284744,224,H
2022-12-05T22:25:27Z,nj1xo326,serial-reaction-time,1,R,1,1,55,1243,0,4,610.1000000238419,244,H
2022-12-05T22:25:28Z,nj1xo326,serial-reaction-time,1,P,1,1,56,1243,0,3,654.5999999046326,443,H
2022-12-05T22:25:28Z,nj1xo326,serial-reaction-time,1,R,1,1,57,1243,0,4,455.89999997615814,434,T
2022-12-05T22:25:29Z,nj1xo326,serial-reaction-time,1,P,1,1,58,1243,0,1,662.3999999761581,341,H
2022-12-05T22:25:30Z,nj1xo326,serial-reaction-time,1,R,1,1,59,1243,0,1,302.3000000715256,411,L
2022-12-05T22:25:30Z,nj1xo326,serial-reaction-time,1,P,1,1,60,1243,0,2,575.6999999284744,112,H
2022-12-05T22:25:31Z,nj1xo326,serial-reaction-time,1,R,1,1,61,1243,0,2,323.39999997615814,122,H
2022-12-05T22:25:31Z,nj1xo326,serial-reaction-time,1,P,1,1,62,1243,0,4,380.2999999523163,224,H
2022-12-05T22:25:32Z,nj1xo326,serial-reaction-time,1,R,1,1,63,1243,0,3,478.1999999284744,243,L
2022-12-05T22:25:32Z,nj1xo326,serial-reaction-time,1,P,1,1,64,1243,0,3,410.09999990463257,433,H
2022-12-05T22:25:33Z,nj1xo326,serial-reaction-time,1,R,1,1,65,1243,0,4,505.39999997615814,334,L
2022-12-05T22:25:34Z,nj1xo326,serial-reaction-time,1,P,1,1,66,1243,0,1,601.2999999523163,341,H
2022-12-05T22:25:34Z,nj1xo326,serial-reaction-time,1,R,1,1,67,1243,0,2,393.2999999523163,412,L
2022-12-05T22:25:35Z,nj1xo326,serial-reaction-time,1,P,1,1,68,1243,0,2,401.7999999523163,122,H
2022-12-05T22:25:35Z,nj1xo326,serial-reaction-time,1,R,1,1,69,1243,0,3,403.09999990463257,223,L
2022-12-05T22:25:36Z,nj1xo326,serial-reaction-time,1,P,1,1,70,1243,0,4,488,234,H
2022-12-05T22:25:37Z,nj1xo326,serial-reaction-time,1,R,1,1,71,1243,0,1,438.89999997615814,341,H
2022-12-05T22:25:37Z,nj1xo326,serial-reaction-time,1,P,1,1,72,1243,0,3,637.1000000238419,413,H
2022-12-05T22:25:38Z,nj1xo326,serial-reaction-time,1,R,1,1,73,1243,0,3,301.1999999284744,133,L
2022-12-05T22:25:38Z,nj1xo326,serial-reaction-time,1,P,1,1,74,1243,0,1,371.2999999523163,331,H
2022-12-05T22:25:39Z,nj1xo326,serial-reaction-time,1,R,1,1,75,1243,0,1,943,311,H
2022-12-05T22:25:40Z,nj1xo326,serial-reaction-time,1,P,1,1,76,1243,0,2,441.90000009536743,112,H
2022-12-05T22:25:40Z,nj1xo326,serial-reaction-time,1,R,1,1,77,1243,0,2,337.1999999284744,122,H
2022-12-05T22:25:41Z,nj1xo326,serial-reaction-time,1,P,1,1,78,1243,0,4,443.5,224,H
2022-12-05T22:25:42Z,nj1xo326,serial-reaction-time,1,R,1,1,79,1243,0,3,379.10000002384186,243,L
2022-12-05T22:25:42Z,nj1xo326,serial-reaction-time,1,P,1,1,80,1243,0,3,330,433,H
2022-12-05T22:25:47Z,nj1xo326,html-keyboard-response,NA,NA,NA,NA,NA,NA,NA,NA,NA,NA,NA
2022-12-05T22:25:52Z,nj1xo326,html-keyboard-response,NA,NA,NA,NA,NA,NA,NA,NA,NA,NA,NA
2022-12-05T22:25:54Z,nj1xo326,serial-reaction-time,1,R,2,1,1,1243,0,1,374.1999999284744,1,X
2022-12-05T22:25:54Z,nj1xo326,serial-reaction-time,1,P,2,1,2,1243,0,1,305.5,11,X
2022-12-05T22:25:55Z,nj1xo326,serial-reaction-time,1,R,2,1,3,1243,0,1,336.7000000476837,111,R
2022-12-05T22:25:55Z,nj1xo326,serial-reaction-time,1,P,2,1,4,1243,0,2,389.2000000476837,112,H
2022-12-05T22:25:56Z,nj1xo326,serial-reaction-time,1,R,2,1,5,1243,0,2,243.19999992847443,122,H
2022-12-05T22:25:56Z,nj1xo326,serial-reaction-time,1,P,2,1,6,1243,0,4,437.2999999523163,224,H
2022-12-05T22:25:57Z,nj1xo326,serial-reaction-time,1,R,2,1,7,1243,0,4,279.2000000476837,244,H
2022-12-05T22:25:57Z,nj1xo326,serial-reaction-time,1,P,2,1,8,1243,0,3,348.5,443,H
2022-12-05T22:25:58Z,nj1xo326,serial-reaction-time,1,R,2,1,9,1243,0,1,459.8000000715256,431,L
2022-12-05T22:25:58Z,nj1xo326,serial-reaction-time,1,P,2,1,10,1243,0,1,245.5,311,H
2022-12-05T22:25:59Z,nj1xo326,serial-reaction-time,1,R,2,1,11,1243,0,3,355.40000009536743,113,L
2022-12-05T22:25:59Z,nj1xo326,serial-reaction-time,1,P,2,1,12,1243,0,2,400.2999999523163,132,H
2022-12-05T22:26:00Z,nj1xo326,serial-reaction-time,1,R,2,1,13,1243,0,3,431.40000009536743,323,T
2022-12-05T22:26:00Z,nj1xo326,serial-reaction-time,1,P,2,1,14,1243,0,4,306.2999999523163,234,H
2022-12-05T22:26:01Z,nj1xo326,serial-reaction-time,1,R,2,1,15,1243,0,3,292.5,343,T
2022-12-05T22:26:01Z,nj1xo326,serial-reaction-time,1,P,2,1,16,1243,0,3,329.60000002384186,433,H
2022-12-05T22:26:02Z,nj1xo326,serial-reaction-time,1,R,2,1,17,1243,0,3,486.5,333,R
2022-12-05T22:26:02Z,nj1xo326,serial-reaction-time,1,P,2,1,18,1243,0,1,473.8000000715256,331,H
2022-12-05T22:26:03Z,nj1xo326,serial-reaction-time,1,R,2,1,19,1243,0,1,240.10000002384183,311,H
2022-12-05T22:26:03Z,nj1xo326,serial-reaction-time,1,P,2,1,20,1243,0,2,380.2999999523163,112,H
2022-12-05T22:26:04Z,nj1xo326,serial-reaction-time,1,R,2,1,21,1243,0,4,435,124,L
2022-12-05T22:26:04Z,nj1xo326,serial-reaction-time,1,P,2,1,22,1243,0,4,326.39999997615814,244,H
2022-12-05T22:26:05Z,nj1xo326,serial-reaction-time,1,R,2,1,23,1243,0,2,382.10000002384186,442,L
2022-12-05T22:26:05Z,nj1xo326,serial-reaction-time,1,P,2,1,24,1243,0,3,433,423,H
2022-12-05T22:26:06Z,nj1xo326,serial-reaction-time,1,R,2,1,25,1243,0,3,251,233,L
2022-12-05T22:26:06Z,nj1xo326,serial-reaction-time,1,P,2,1,26,1243,0,1,453.7000000476837,331,H
2022-12-05T22:26:07Z,nj1xo326,serial-reaction-time,1,R,2,1,27,1243,0,1,333.6999999284744,311,H
2022-12-05T22:26:07Z,nj1xo326,serial-reaction-time,NA,P,2,1,28,1243,0,2,410.10000002384186,112,H
2022-12-05T22:26:08Z,nj1xo326,serial-reaction-time,1,P,2,0,28,1243,0,2,558,112,H
2022-12-05T22:26:08Z,nj1xo326,serial-reaction-time,1,R,2,1,29,1243,0,3,429.90000009536743,123,L
2022-12-05T22:26:09Z,nj1xo326,serial-reaction-time,1,P,2,1,30,1243,0,4,400.39999997615814,234,H
2022-12-05T22:26:09Z,nj1xo326,serial-reaction-time,1,R,2,1,31,1243,0,4,531.3999999761581,344,L
2022-12-05T22:26:10Z,nj1xo326,serial-reaction-time,1,P,2,1,32,1243,0,3,738,443,H
2022-12-05T22:26:11Z,nj1xo326,serial-reaction-time,1,R,2,1,33,1243,0,3,343,433,H
2022-12-05T22:26:11Z,nj1xo326,serial-reaction-time,NA,P,2,1,34,1243,0,1,348.40000009536743,331,H
2022-12-05T22:26:11Z,nj1xo326,serial-reaction-time,1,P,2,0,34,1243,0,1,357.60000014305115,331,H
2022-12-05T22:26:12Z,nj1xo326,serial-reaction-time,1,R,2,1,35,1243,0,2,335.7000000476837,312,L
2022-12-05T22:26:12Z,nj1xo326,serial-reaction-time,1,P,2,1,36,1243,0,2,281.2999999523163,122,H
2022-12-05T22:26:13Z,nj1xo326,serial-reaction-time,1,R,2,1,37,1243,0,3,354.2000000476837,223,L
2022-12-05T22:26:13Z,nj1xo326,serial-reaction-time,1,P,2,1,38,1243,0,4,313,234,H
2022-12-05T22:26:14Z,nj1xo326,serial-reaction-time,1,R,2,1,39,1243,0,1,525.3999999761581,341,H
2022-12-05T22:26:14Z,nj1xo326,serial-reaction-time,1,P,2,1,40,1243,0,3,472.5,413,H
2022-12-05T22:26:15Z,nj1xo326,serial-reaction-time,1,R,2,1,41,1243,0,1,380.39999997615814,131,T
2022-12-05T22:26:15Z,nj1xo326,serial-reaction-time,1,P,2,1,42,1243,0,1,363.39999997615814,311,H
2022-12-05T22:26:16Z,nj1xo326,serial-reaction-time,1,R,2,1,43,1243,0,4,425,114,L
2022-12-05T22:26:17Z,nj1xo326,serial-reaction-time,1,P,2,1,44,1243,0,2,457,142,H
2022-12-05T22:26:17Z,nj1xo326,serial-reaction-time,1,R,2,1,45,1243,0,2,210.80000007152557,422,L
2022-12-05T22:26:17Z,nj1xo326,serial-reaction-time,1,P,2,1,46,1243,0,4,376.5,224,H
2022-12-05T22:26:18Z,nj1xo326,serial-reaction-time,1,R,2,1,47,1243,0,4,374.2999999523163,244,H
2022-12-05T22:26:19Z,nj1xo326,serial-reaction-time,1,P,2,1,48,1243,0,3,568.2000000476837,443,H
2022-12-05T22:26:19Z,nj1xo326,serial-reaction-time,1,R,2,1,49,1243,0,3,388.7000000476837,433,H
2022-12-05T22:26:20Z,nj1xo326,serial-reaction-time,NA,P,2,1,50,1243,0,1,392.8000000715256,331,H
2022-12-05T22:26:20Z,nj1xo326,serial-reaction-time,1,P,2,0,50,1243,0,1,710.4000000953674,331,H
2022-12-05T22:26:21Z,nj1xo326,serial-reaction-time,1,R,2,1,51,1243,0,3,498.6999999284744,313,T
2022-12-05T22:26:22Z,nj1xo326,serial-reaction-time,1,P,2,1,52,1243,0,2,786.5,132,H
2022-12-05T22:26:22Z,nj1xo326,serial-reaction-time,1,R,2,1,53,1243,0,3,441.2000000476837,323,T
2022-12-05T22:26:23Z,nj1xo326,serial-reaction-time,1,P,2,1,54,1243,0,4,290.39999997615814,234,H
2022-12-05T22:26:23Z,nj1xo326,serial-reaction-time,NA,R,2,1,55,1243,0,4,335.2000000476837,344,L
2022-12-05T22:26:23Z,nj1xo326,serial-reaction-time,1,R,2,0,55,1243,0,4,586,344,L
2022-12-05T22:26:24Z,nj1xo326,serial-reaction-time,NA,P,2,1,56,1243,0,3,336.1999999284744,443,H
2022-12-05T22:26:24Z,nj1xo326,serial-reaction-time,1,P,2,0,56,1243,0,3,634.2999999523163,443,H
2022-12-05T22:26:25Z,nj1xo326,serial-reaction-time,1,R,2,1,57,1243,0,4,411.39999997615814,434,T
2022-12-05T22:26:25Z,nj1xo326,serial-reaction-time,NA,P,2,1,58,1243,0,1,373.5,341,H
2022-12-05T22:26:25Z,nj1xo326,serial-reaction-time,1,P,2,0,58,1243,0,1,439.5,341,H
2022-12-05T22:26:25Z,nj1xo326,serial-reaction-time,1,R,2,1,59,1243,0,1,115.60000002384186,411,L
2022-12-05T22:26:26Z,nj1xo326,serial-reaction-time,NA,P,2,1,60,1243,0,2,93.30000007152556,112,H
2022-12-05T22:26:26Z,nj1xo326,serial-reaction-time,1,P,2,0,60,1243,0,2,631.6000000238419,112,H
2022-12-05T22:26:27Z,nj1xo326,serial-reaction-time,1,R,2,1,61,1243,0,3,443.10000002384186,123,L
2022-12-05T22:26:27Z,nj1xo326,serial-reaction-time,1,P,2,1,62,1243,0,4,299.09999990463257,234,H
2022-12-05T22:26:28Z,nj1xo326,serial-reaction-time,1,R,2,1,63,1243,0,1,370.89999997615814,341,H
2022-12-05T22:26:29Z,nj1xo326,serial-reaction-time,1,P,2,1,64,1243,0,3,720.3999999761581,413,H
2022-12-05T22:26:29Z,nj1xo326,serial-reaction-time,1,R,2,1,65,1243,0,1,376.40000009536743,131,T
2022-12-05T22:26:30Z,nj1xo326,serial-reaction-time,1,P,2,1,66,1243,0,1,360.2999999523163,311,H
2022-12-05T22:26:30Z,nj1xo326,serial-reaction-time,1,R,2,1,67,1243,0,3,404.5,113,L
2022-12-05T22:26:31Z,nj1xo326,serial-reaction-time,NA,P,2,1,68,1243,0,2,624.5,132,H
2022-12-05T22:26:31Z,nj1xo326,serial-reaction-time,1,P,2,0,68,1243,0,2,936.7999999523164,132,H
2022-12-05T22:26:32Z,nj1xo326,serial-reaction-time,1,R,2,1,69,1243,0,4,346.7000000476837,324,L
2022-12-05T22:26:33Z,nj1xo326,serial-reaction-time,1,P,2,1,70,1243,0,4,753.9000000953674,244,H
2022-12-05T22:26:33Z,nj1xo326,serial-reaction-time,1,R,2,1,71,1243,0,3,534,443,H
2022-12-05T22:26:34Z,nj1xo326,serial-reaction-time,1,P,2,1,72,1243,0,3,638.6000000238419,433,H
2022-12-05T22:26:35Z,nj1xo326,serial-reaction-time,1,R,2,1,73,1243,0,1,578.3000000715256,331,H
2022-12-05T22:26:36Z,nj1xo326,serial-reaction-time,1,P,2,1,74,1243,0,1,689.1999999284744,311,H
2022-12-05T22:26:37Z,nj1xo326,serial-reaction-time,1,R,2,1,75,1243,0,3,800.5,113,L
2022-12-05T22:26:37Z,nj1xo326,serial-reaction-time,1,P,2,1,76,1243,0,2,493.89999997615814,132,H
2022-12-05T22:26:38Z,nj1xo326,serial-reaction-time,NA,R,2,1,77,1243,0,1,369.5,321,H
2022-12-05T22:26:38Z,nj1xo326,serial-reaction-time,1,R,2,0,77,1243,0,1,402.2000000476837,321,H
2022-12-05T22:26:38Z,nj1xo326,serial-reaction-time,1,P,2,1,78,1243,0,4,394.39999997615814,214,H
2022-12-05T22:26:39Z,nj1xo326,serial-reaction-time,1,R,2,1,79,1243,0,3,306.7000000476837,143,L
2022-12-05T22:26:39Z,nj1xo326,serial-reaction-time,1,P,2,1,80,1243,0,3,347.59999990463257,433,H
2022-12-05T22:26:44Z,nj1xo326,html-keyboard-response,NA,NA,NA,NA,NA,NA,NA,NA,NA,NA,NA
2022-12-05T22:26:49Z,nj1xo326,html-keyboard-response,NA,NA,NA,NA,NA,NA,NA,NA,NA,NA,NA
2022-12-05T22:26:52Z,nj1xo326,serial-reaction-time,1,R,3,1,1,1243,0,4,1838,4,X
2022-12-05T22:26:52Z,nj1xo326,serial-reaction-time,1,P,3,1,2,1243,0,1,445.7000000476837,41,X
2022-12-05T22:26:53Z,nj1xo326,serial-reaction-time,1,R,3,1,3,1243,0,3,434,413,H
2022-12-05T22:26:53Z,nj1xo326,serial-reaction-time,1,P,3,1,4,1243,0,2,397.09999990463257,132,H
2022-12-05T22:26:54Z,nj1xo326,serial-reaction-time,1,R,3,1,5,1243,0,2,294.3000000715256,322,L
2022-12-05T22:26:54Z,nj1xo326,serial-reaction-time,1,P,3,1,6,1243,0,4,362.10000002384186,224,H
2022-12-05T22:26:55Z,nj1xo326,serial-reaction-time,1,R,3,1,7,1243,0,1,509.89999997615814,241,L
2022-12-05T22:26:56Z,nj1xo326,serial-reaction-time,1,P,3,1,8,1243,0,3,617.3999999761581,413,H
2022-12-05T22:26:56Z,nj1xo326,serial-reaction-time,1,R,3,1,9,1243,0,3,322.5,133,L
2022-12-05T22:26:57Z,nj1xo326,serial-reaction-time,NA,P,3,1,10,1243,0,1,531.3000000715256,331,H
2022-12-05T22:26:57Z,nj1xo326,serial-reaction-time,1,P,3,0,10,1243,0,1,814.7000000476837,331,H
2022-12-05T22:26:58Z,nj1xo326,serial-reaction-time,1,R,3,1,11,1243,0,4,383.7000000476837,314,L
2022-12-05T22:26:58Z,nj1xo326,serial-reaction-time,NA,P,3,1,12,1243,0,2,360.8000000715256,142,H
2022-12-05T22:26:59Z,nj1xo326,serial-reaction-time,1,P,3,0,12,1243,0,2,649.7000000476837,142,H
2022-12-05T22:26:59Z,nj1xo326,serial-reaction-time,1,R,3,1,13,1243,0,2,305.5,422,L
2022-12-05T22:26:59Z,nj1xo326,serial-reaction-time,1,P,3,1,14,1243,0,4,365.90000009536743,224,H
2022-12-05T22:27:00Z,nj1xo326,serial-reaction-time,1,R,3,1,15,1243,0,4,378,244,H
2022-12-05T22:27:01Z,nj1xo326,serial-reaction-time,1,P,3,1,16,1243,0,3,454.09999990463257,443,H
2022-12-05T22:27:01Z,nj1xo326,serial-reaction-time,1,R,3,1,17,1243,0,2,622.1000000238419,432,L
2022-12-05T22:27:02Z,nj1xo326,serial-reaction-time,1,P,3,1,18,1243,0,1,516.6999999284744,321,H
2022-12-05T22:27:03Z,nj1xo326,serial-reaction-time,1,R,3,1,19,1243,0,1,343.10000002384186,211,L
2022-12-05T22:27:03Z,nj1xo326,serial-reaction-time,NA,P,3,1,20,1243,0,2,386.59999990463257,112,H
2022-12-05T22:27:03Z,nj1xo326,serial-reaction-time,1,P,3,0,20,1243,0,2,565.4999998807907,112,H
2022-12-05T22:27:04Z,nj1xo326,serial-reaction-time,1,R,3,1,21,1243,0,1,459,121,T
2022-12-05T22:27:05Z,nj1xo326,serial-reaction-time,1,P,3,1,22,1243,0,4,575.0999999046326,214,H
2022-12-05T22:27:05Z,nj1xo326,serial-reaction-time,1,R,3,1,23,1243,0,3,321.2000000476837,143,L
2022-12-05T22:27:06Z,nj1xo326,serial-reaction-time,1,P,3,1,24,1243,0,3,419.89999997615814,433,H
2022-12-05T22:27:06Z,nj1xo326,serial-reaction-time,1,R,3,1,25,1243,0,2,308.7999999523163,332,L
2022-12-05T22:27:07Z,nj1xo326,serial-reaction-time,1,P,3,1,26,1243,0,1,530,321,H
2022-12-05T22:27:08Z,nj1xo326,serial-reaction-time,1,R,3,1,27,1243,0,3,1364.100000023842,213,L
2022-12-05T22:27:09Z,nj1xo326,serial-reaction-time,1,P,3,1,28,1243,0,2,648.6000000238419,132,H
2022-12-05T22:27:10Z,nj1xo326,serial-reaction-time,1,R,3,1,29,1243,0,2,405.7000000476837,322,L
2022-12-05T22:27:10Z,nj1xo326,serial-reaction-time,1,P,3,1,30,1243,0,4,591.7000000476837,224,H
2022-12-05T22:27:11Z,nj1xo326,serial-reaction-time,1,R,3,1,31,1243,0,2,447.3000000715256,242,T
2022-12-05T22:27:12Z,nj1xo326,serial-reaction-time,1,P,3,1,32,1243,0,3,916.7999999523164,423,H
2022-12-05T22:27:13Z,nj1xo326,serial-reaction-time,1,R,3,1,33,1243,0,4,526.9000000953674,234,H
2022-12-05T22:27:13Z,nj1xo326,serial-reaction-time,1,P,3,1,34,1243,0,1,526.1000000238419,341,H
2022-12-05T22:27:14Z,nj1xo326,serial-reaction-time,1,R,3,1,35,1243,0,4,549.6000000238419,414,T
2022-12-05T22:27:15Z,nj1xo326,serial-reaction-time,1,P,3,1,36,1243,0,2,448.1999999284744,142,H
2022-12-05T22:27:15Z,nj1xo326,serial-reaction-time,1,R,3,1,37,1243,0,1,679.8999999761581,421,L
2022-12-05T22:27:16Z,nj1xo326,serial-reaction-time,1,P,3,1,38,1243,0,4,397.5,214,H
2022-12-05T22:27:16Z,nj1xo326,serial-reaction-time,1,R,3,1,39,1243,0,3,377,143,L
2022-12-05T22:27:17Z,nj1xo326,serial-reaction-time,1,P,3,1,40,1243,0,3,352.2999999523163,433,H
2022-12-05T22:27:17Z,nj1xo326,serial-reaction-time,1,R,3,1,41,1243,0,1,405.5,331,H
2022-12-05T22:27:18Z,nj1xo326,serial-reaction-time,1,P,3,1,42,1243,0,1,406.5,311,H
2022-12-05T22:27:19Z,nj1xo326,serial-reaction-time,1,R,3,1,43,1243,0,3,688.1000000238419,113,L
2022-12-05T22:27:20Z,nj1xo326,serial-reaction-time,1,P,3,1,44,1243,0,2,939.2000000476836,132,H
2022-12-05T22:27:21Z,nj1xo326,serial-reaction-time,1,R,3,1,45,1243,0,2,887.8999999761581,322,L
2022-12-05T22:27:22Z,nj1xo326,serial-reaction-time,1,P,3,1,46,1243,0,4,492.3000000715256,224,H
2022-12-05T22:27:22Z,nj1xo326,serial-reaction-time,1,R,3,1,47,1243,0,1,534.5,241,L
2022-12-05T22:27:23Z,nj1xo326,serial-reaction-time,1,P,3,1,48,1243,0,3,460.7000000476837,413,H
2022-12-05T22:27:23Z,nj1xo326,serial-reaction-time,1,R,3,1,49,1243,0,4,456.89999997615814,134,L
2022-12-05T22:27:24Z,nj1xo326,serial-reaction-time,1,P,3,1,50,1243,0,1,479.3000000715256,341,H
2022-12-05T22:27:25Z,nj1xo326,serial-reaction-time,1,R,3,1,51,1243,0,3,441.7999999523163,413,H
2022-12-05T22:27:25Z,nj1xo326,serial-reaction-time,1,P,3,1,52,1243,0,2,689.8999999761581,132,H
2022-12-05T22:27:26Z,nj1xo326,serial-reaction-time,NA,R,3,1,53,1243,0,3,381.5,323,T
2022-12-05T22:27:26Z,nj1xo326,serial-reaction-time,1,R,3,0,53,1243,0,3,626.2999999523163,323,T
2022-12-05T22:27:27Z,nj1xo326,serial-reaction-time,1,P,3,1,54,1243,0,4,493.59999990463257,234,H
2022-12-05T22:27:28Z,nj1xo326,serial-reaction-time,1,R,3,1,55,1243,0,3,1005.2000000476836,343,T
2022-12-05T22:27:29Z,nj1xo326,serial-reaction-time,1,P,3,1,56,1243,0,3,922.399999976158,433,H
2022-12-05T22:27:30Z,nj1xo326,serial-reaction-time,1,R,3,1,57,1243,0,1,740.4000000953674,331,H
2022-12-05T22:27:31Z,nj1xo326,serial-reaction-time,1,P,3,1,58,1243,0,1,790.2999999523163,311,H
2022-12-05T22:27:31Z,nj1xo326,serial-reaction-time,1,R,3,1,59,1243,0,1,345.39999997615814,111,R
2022-12-05T22:27:32Z,nj1xo326,serial-reaction-time,1,P,3,1,60,1243,0,2,479.09999990463257,112,H
2022-12-05T22:27:33Z,nj1xo326,serial-reaction-time,1,R,3,1,61,1243,0,3,822.6000000238419,123,L
2022-12-05T22:27:34Z,nj1xo326,serial-reaction-time,1,P,3,1,62,1243,0,4,954.5,234,H
2022-12-05T22:27:35Z,nj1xo326,serial-reaction-time,1,R,3,1,63,1243,0,2,392,342,L
2022-12-05T22:27:35Z,nj1xo326,serial-reaction-time,1,P,3,1,64,1243,0,3,431.2999999523163,423,H
2022-12-05T22:27:36Z,nj1xo326,serial-reaction-time,1,R,3,1,65,1243,0,2,504.2999999523163,232,T
2022-12-05T22:27:37Z,nj1xo326,serial-reaction-time,1,P,3,1,66,1243,0,1,703.1000000238419,321,H
2022-12-05T22:27:38Z,nj1xo326,serial-reaction-time,NA,R,3,1,67,1243,0,3,903.100000023842,213,L
2022-12-05T22:27:38Z,nj1xo326,serial-reaction-time,1,R,3,0,67,1243,0,3,1212.2999999523165,213,L
2022-12-05T22:27:39Z,nj1xo326,serial-reaction-time,1,P,3,1,68,1243,0,2,476.89999997615814,132,H
2022-12-05T22:27:39Z,nj1xo326,serial-reaction-time,NA,R,3,1,69,1243,0,1,353.89999997615814,321,H
2022-12-05T22:27:40Z,nj1xo326,serial-reaction-time,1,R,3,0,69,1243,0,1,745.8999999761581,321,H
2022-12-05T22:27:40Z,nj1xo326,serial-reaction-time,1,P,3,1,70,1243,0,4,349.2999999523163,214,H
2022-12-05T22:27:41Z,nj1xo326,serial-reaction-time,NA,R,3,1,71,1243,0,2,371.5,142,H
2022-12-05T22:27:41Z,nj1xo326,serial-reaction-time,1,R,3,0,71,1243,0,2,547,142,H
2022-12-05T22:27:41Z,nj1xo326,serial-reaction-time,1,P,3,1,72,1243,0,3,300.39999997615814,423,H
2022-12-05T22:27:41Z,nj1xo326,serial-reaction-time,1,R,3,1,73,1243,0,4,76.20000004768372,234,H
2022-12-05T22:27:42Z,nj1xo326,serial-reaction-time,NA,P,3,1,74,1243,0,1,102,341,H
2022-12-05T22:27:42Z,nj1xo326,serial-reaction-time,NA,P,3,0,74,1243,0,1,351.10000002384186,341,H
2022-12-05T22:27:42Z,nj1xo326,serial-reaction-time,NA,P,3,0,74,1243,0,1,507.2000000476837,341,H
2022-12-05T22:27:42Z,nj1xo326,serial-reaction-time,1,P,3,0,74,1243,0,1,805.9000000953674,341,H
2022-12-05T22:27:43Z,nj1xo326,serial-reaction-time,1,R,3,1,75,1243,0,1,313.7000000476837,411,L
2022-12-05T22:27:43Z,nj1xo326,serial-reaction-time,1,P,3,1,76,1243,0,2,376.89999997615814,112,H
2022-12-05T22:27:44Z,nj1xo326,serial-reaction-time,1,R,3,1,77,1243,0,2,439,122,H
2022-12-05T22:27:44Z,nj1xo326,serial-reaction-time,1,P,3,1,78,1243,0,4,353.2000000476837,224,H
2022-12-05T22:27:45Z,nj1xo326,serial-reaction-time,1,R,3,1,79,1243,0,4,898.5,244,H
2022-12-05T22:27:46Z,nj1xo326,serial-reaction-time,1,P,3,1,80,1243,0,3,353.3000000715256,443,H
2022-12-05T22:27:51Z,nj1xo326,html-keyboard-response,NA,NA,NA,NA,NA,NA,NA,NA,NA,NA,NA
2022-12-05T22:27:59Z,nj1xo326,html-keyboard-response,NA,NA,NA,NA,NA,NA,NA,NA,NA,NA,NA
2022-12-05T22:28:00Z,nj1xo326,serial-reaction-time,1,R,4,1,1,1243,0,1,379,1,X
2022-12-05T22:28:01Z,nj1xo326,serial-reaction-time,1,P,4,1,2,1243,0,1,340.10000002384186,11,X
2022-12-05T22:28:01Z,nj1xo326,serial-reaction-time,1,R,4,1,3,1243,0,2,337.8000000715256,112,H
2022-12-05T22:28:02Z,nj1xo326,serial-reaction-time,1,P,4,1,4,1243,0,2,273.3000000715256,122,H
2022-12-05T22:28:02Z,nj1xo326,serial-reaction-time,1,R,4,1,5,1243,0,3,347.39999997615814,223,L
2022-12-05T22:28:03Z,nj1xo326,serial-reaction-time,1,P,4,1,6,1243,0,4,416.7999999523163,234,H
2022-12-05T22:28:03Z,nj1xo326,serial-reaction-time,NA,R,4,1,7,1243,0,3,438.89999997615814,343,T
2022-12-05T22:28:03Z,nj1xo326,serial-reaction-time,1,R,4,0,7,1243,0,3,559.5,343,T
2022-12-05T22:28:04Z,nj1xo326,serial-reaction-time,1,P,4,1,8,1243,0,3,331.1999999284744,433,H
2022-12-05T22:28:04Z,nj1xo326,serial-reaction-time,1,R,4,1,9,1243,0,4,345.39999997615814,334,L
2022-12-05T22:28:05Z,nj1xo326,serial-reaction-time,1,P,4,1,10,1243,0,1,458,341,H
2022-12-05T22:28:05Z,nj1xo326,serial-reaction-time,1,R,4,1,11,1243,0,2,303.3000000715256,412,L
2022-12-05T22:28:06Z,nj1xo326,serial-reaction-time,1,P,4,1,12,1243,0,2,342.1999999284744,122,H
2022-12-05T22:28:06Z,nj1xo326,serial-reaction-time,1,R,4,1,13,1243,0,2,315.10000002384186,222,R
2022-12-05T22:28:07Z,nj1xo326,serial-reaction-time,1,P,4,1,14,1243,0,4,399.1999999284744,224,H
2022-12-05T22:28:07Z,nj1xo326,serial-reaction-time,1,R,4,1,15,1243,0,1,320.5,241,L
2022-12-05T22:28:08Z,nj1xo326,serial-reaction-time,1,P,4,1,16,1243,0,3,504.10000002384186,413,H
2022-12-05T22:28:09Z,nj1xo326,serial-reaction-time,1,R,4,1,17,1243,0,2,450.5,132,H
2022-12-05T22:28:09Z,nj1xo326,serial-reaction-time,1,P,4,1,18,1243,0,1,406.39999997615814,321,H
2022-12-05T22:28:10Z,nj1xo326,serial-reaction-time,1,R,4,1,19,1243,0,3,373.60000002384186,213,L
2022-12-05T22:28:10Z,nj1xo326,serial-reaction-time,1,P,4,1,20,1243,0,2,488.10000002384186,132,H
2022-12-05T22:28:11Z,nj1xo326,serial-reaction-time,1,R,4,1,21,1243,0,2,314.5,322,L
2022-12-05T22:28:11Z,nj1xo326,serial-reaction-time,1,P,4,1,22,1243,0,4,321.7000000476837,224,H
2022-12-05T22:28:12Z,nj1xo326,serial-reaction-time,1,R,4,1,23,1243,0,4,372.60000002384186,244,H
2022-12-05T22:28:12Z,nj1xo326,serial-reaction-time,1,P,4,1,24,1243,0,3,377.5,443,H
2022-12-05T22:28:13Z,nj1xo326,serial-reaction-time,1,R,4,1,25,1243,0,2,516.8000000715256,432,L
2022-12-05T22:28:13Z,nj1xo326,serial-reaction-time,1,P,4,1,26,1243,0,1,470.09999990463257,321,H
2022-12-05T22:28:14Z,nj1xo326,serial-reaction-time,1,R,4,1,27,1243,0,3,469.2999999523163,213,L
2022-12-05T22:28:15Z,nj1xo326,serial-reaction-time,1,P,4,1,28,1243,0,2,551.2000000476837,132,H
2022-12-05T22:28:15Z,nj1xo326,serial-reaction-time,1,R,4,1,29,1243,0,3,367.60000002384186,323,T
2022-12-05T22:28:16Z,nj1xo326,serial-reaction-time,1,P,4,1,30,1243,0,4,418.2999999523163,234,H
2022-12-05T22:28:16Z,nj1xo326,serial-reaction-time,1,R,4,1,31,1243,0,4,346.2000000476837,344,L
2022-12-05T22:28:17Z,nj1xo326,serial-reaction-time,1,P,4,1,32,1243,0,3,394.7000000476837,443,H
2022-12-05T22:28:17Z,nj1xo326,serial-reaction-time,1,R,4,1,33,1243,0,3,357.8000000715256,433,H
2022-12-05T22:28:18Z,nj1xo326,serial-reaction-time,1,P,4,1,34,1243,0,1,405.7000000476837,331,H
2022-12-05T22:28:18Z,nj1xo326,serial-reaction-time,1,R,4,1,35,1243,0,1,321.6999999284744,311,H
2022-12-05T22:28:19Z,nj1xo326,serial-reaction-time,1,P,4,1,36,1243,0,2,384.89999997615814,112,H
2022-12-05T22:28:19Z,nj1xo326,serial-reaction-time,1,R,4,1,37,1243,0,3,421.6999999284744,123,L
2022-12-05T22:28:20Z,nj1xo326,serial-reaction-time,1,P,4,1,38,1243,0,4,305.5,234,H
2022-12-05T22:28:20Z,nj1xo326,serial-reaction-time,1,R,4,1,39,1243,0,3,387.7000000476837,343,T
2022-12-05T22:28:21Z,nj1xo326,serial-reaction-time,1,P,4,1,40,1243,0,3,370.89999997615814,433,H
2022-12-05T22:28:22Z,nj1xo326,serial-reaction-time,1,R,4,1,41,1243,0,1,540.4000000953674,331,H
2022-12-05T22:28:22Z,nj1xo326,serial-reaction-time,1,P,4,1,42,1243,0,1,345.5,311,H
2022-12-05T22:28:23Z,nj1xo326,serial-reaction-time,1,R,4,1,43,1243,0,4,598.1000000238419,114,L
2022-12-05T22:28:23Z,nj1xo326,serial-reaction-time,1,P,4,1,44,1243,0,2,459.5,142,H
2022-12-05T22:28:24Z,nj1xo326,serial-reaction-time,1,R,4,1,45,1243,0,4,442.09999990463257,424,T
2022-12-05T22:28:25Z,nj1xo326,serial-reaction-time,1,P,4,1,46,1243,0,4,359.7999999523163,244,H
2022-12-05T22:28:25Z,nj1xo326,serial-reaction-time,1,R,4,1,47,1243,0,2,390.39999997615814,442,L
2022-12-05T22:28:26Z,nj1xo326,serial-reaction-time,1,P,4,1,48,1243,0,3,526.6999999284744,423,H
2022-12-05T22:28:26Z,nj1xo326,serial-reaction-time,1,R,4,1,49,1243,0,1,411.10000002384186,231,L
2022-12-05T22:28:27Z,nj1xo326,serial-reaction-time,1,P,4,1,50,1243,0,1,461.8000000715256,311,H
2022-12-05T22:28:27Z,nj1xo326,serial-reaction-time,1,R,4,1,51,1243,0,4,406.3000000715256,114,L
2022-12-05T22:28:28Z,nj1xo326,serial-reaction-time,1,P,4,1,52,1243,0,2,558.7000000476837,142,H
2022-12-05T22:28:29Z,nj1xo326,serial-reaction-time,1,R,4,1,53,1243,0,4,417.89999997615814,424,T
2022-12-05T22:28:29Z,nj1xo326,serial-reaction-time,1,P,4,1,54,1243,0,4,354,244,H
2022-12-05T22:28:30Z,nj1xo326,serial-reaction-time,1,R,4,1,55,1243,0,3,433.3000000715256,443,H
2022-12-05T22:28:31Z,nj1xo326,serial-reaction-time,1,P,4,1,56,1243,0,3,655.8999999761581,433,H
2022-12-05T22:28:31Z,nj1xo326,serial-reaction-time,1,R,4,1,57,1243,0,4,338.60000002384186,334,L
2022-12-05T22:28:32Z,nj1xo326,serial-reaction-time,1,P,4,1,58,1243,0,1,442.7999999523163,341,H
2022-12-05T22:28:32Z,nj1xo326,serial-reaction-time,1,R,4,1,59,1243,0,1,359.10000002384186,411,L
2022-12-05T22:28:33Z,nj1xo326,serial-reaction-time,NA,P,4,1,60,1243,0,2,392,112,H
2022-12-05T22:28:33Z,nj1xo326,serial-reaction-time,1,P,4,0,60,1243,0,2,567.6000000238419,112,H
2022-12-05T22:28:34Z,nj1xo326,serial-reaction-time,1,R,4,1,61,1243,0,1,556.7000000476837,121,T
2022-12-05T22:28:34Z,nj1xo326,serial-reaction-time,1,P,4,1,62,1243,0,4,420.1999999284744,214,H
2022-12-05T22:28:35Z,nj1xo326,serial-reaction-time,1,R,4,1,63,1243,0,2,465.3000000715256,142,H
2022-12-05T22:28:35Z,nj1xo326,serial-reaction-time,NA,P,4,1,64,1243,0,3,377.10000002384186,423,H
2022-12-05T22:28:35Z,nj1xo326,serial-reaction-time,1,P,4,0,64,1243,0,3,591.9000000953674,423,H
2022-12-05T22:28:36Z,nj1xo326,serial-reaction-time,1,R,4,1,65,1243,0,2,419.2000000476837,232,T
2022-12-05T22:28:37Z,nj1xo326,serial-reaction-time,1,P,4,1,66,1243,0,1,523.8999999761581,321,H
2022-12-05T22:28:37Z,nj1xo326,serial-reaction-time,1,R,4,1,67,1243,0,3,468.5,213,L
2022-12-05T22:28:38Z,nj1xo326,serial-reaction-time,NA,P,4,1,68,1243,0,2,409.89999997615814,132,H
2022-12-05T22:28:38Z,nj1xo326,serial-reaction-time,1,P,4,0,68,1243,0,2,713.2000000476837,132,H
2022-12-05T22:28:39Z,nj1xo326,serial-reaction-time,1,R,4,1,69,1243,0,1,414.8000000715256,321,H
2022-12-05T22:28:39Z,nj1xo326,serial-reaction-time,1,P,4,1,70,1243,0,4,583.9000000953674,214,H
2022-12-05T22:28:40Z,nj1xo326,serial-reaction-time,1,R,4,1,71,1243,0,3,332,143,L
2022-12-05T22:28:40Z,nj1xo326,serial-reaction-time,1,P,4,1,72,1243,0,3,373.39999997615814,433,H
2022-12-05T22:28:41Z,nj1xo326,serial-reaction-time,1,R,4,1,73,1243,0,1,464.39999997615814,331,H
2022-12-05T22:28:42Z,nj1xo326,serial-reaction-time,1,P,4,1,74,1243,0,1,360.2999999523163,311,H
2022-12-05T22:28:42Z,nj1xo326,serial-reaction-time,1,R,4,1,75,1243,0,1,345.89999997615814,111,R
2022-12-05T22:28:43Z,nj1xo326,serial-reaction-time,1,P,4,1,76,1243,0,2,477.1999999284744,112,H
2022-12-05T22:28:43Z,nj1xo326,serial-reaction-time,1,R,4,1,77,1243,0,4,624.4000000953674,124,L
2022-12-05T22:28:44Z,nj1xo326,serial-reaction-time,1,P,4,1,78,1243,0,4,310.5,244,H
2022-12-05T22:28:45Z,nj1xo326,serial-reaction-time,1,R,4,1,79,1243,0,2,524.8999999761581,442,L
2022-12-05T22:28:45Z,nj1xo326,serial-reaction-time,1,P,4,1,80,1243,0,3,425.59999990463257,423,H
2022-12-05T22:28:50Z,nj1xo326,html-keyboard-response,NA,NA,NA,NA,NA,NA,NA,NA,NA,NA,NA
2022-12-05T22:28:51Z,nj1xo326,html-keyboard-response,NA,NA,NA,NA,NA,NA,NA,NA,NA,NA,NA
2022-12-05T22:28:52Z,nj1xo326,serial-reaction-time,1,R,5,1,1,1243,0,4,346.09999990463257,4,X
2022-12-05T22:28:53Z,nj1xo326,serial-reaction-time,1,P,5,1,2,1243,0,1,405.60000002384186,41,X
2022-12-05T22:28:53Z,nj1xo326,serial-reaction-time,1,R,5,1,3,1243,0,1,312.8000000715256,411,L
2022-12-05T22:28:53Z,nj1xo326,serial-reaction-time,1,P,5,1,4,1243,0,2,342.3000000715256,112,H
2022-12-05T22:28:54Z,nj1xo326,serial-reaction-time,NA,R,5,1,5,1243,0,1,280.60000002384186,121,T
2022-12-05T22:28:54Z,nj1xo326,serial-reaction-time,1,R,5,0,5,1243,0,1,626.7000000476837,121,T
2022-12-05T22:28:55Z,nj1xo326,serial-reaction-time,1,P,5,1,6,1243,0,4,403.89999997615814,214,H
2022-12-05T22:28:55Z,nj1xo326,serial-reaction-time,1,R,5,1,7,1243,0,2,355.8000000715256,142,H
2022-12-05T22:28:56Z,nj1xo326,serial-reaction-time,1,P,5,1,8,1243,0,3,529.6999999284744,423,H
2022-12-05T22:28:56Z,nj1xo326,serial-reaction-time,1,R,5,1,9,1243,0,3,301.10000002384186,233,L
2022-12-05T22:28:57Z,nj1xo326,serial-reaction-time,NA,P,5,1,10,1243,0,1,322.10000002384186,331,H
2022-12-05T22:28:57Z,nj1xo326,serial-reaction-time,1,P,5,0,10,1243,0,1,704.7999999523163,331,H
2022-12-05T22:28:58Z,nj1xo326,serial-reaction-time,1,R,5,1,11,1243,0,2,435,312,L
2022-12-05T22:28:58Z,nj1xo326,serial-reaction-time,1,P,5,1,12,1243,0,2,316.39999997615814,122,H
2022-12-05T22:28:59Z,nj1xo326,serial-reaction-time,1,R,5,1,13,1243,0,2,324.5,222,R
2022-12-05T22:28:59Z,nj1xo326,serial-reaction-time,1,P,5,1,14,1243,0,4,388.10000002384186,224,H
2022-12-05T22:29:00Z,nj1xo326,serial-reaction-time,1,R,5,1,15,1243,0,2,364.7000000476837,242,T
2022-12-05T22:29:00Z,nj1xo326,serial-reaction-time,1,P,5,1,16,1243,0,3,496.3000000715256,423,H
2022-12-05T22:29:01Z,nj1xo326,serial-reaction-time,1,R,5,1,17,1243,0,4,413.60000002384186,234,H
2022-12-05T22:29:02Z,nj1xo326,serial-reaction-time,1,P,5,1,18,1243,0,1,452.3000000715256,341,H
2022-12-05T22:29:02Z,nj1xo326,serial-reaction-time,1,R,5,1,19,1243,0,3,584,413,H
2022-12-05T22:29:03Z,nj1xo326,serial-reaction-time,1,P,5,1,20,1243,0,2,342.7999999523163,132,H
2022-12-05T22:29:03Z,nj1xo326,serial-reaction-time,1,R,5,1,21,1243,0,4,466.39999997615814,324,L
2022-12-05T22:29:04Z,nj1xo326,serial-reaction-time,1,P,5,1,22,1243,0,4,557,244,H
2022-12-05T22:29:05Z,nj1xo326,serial-reaction-time,1,R,5,1,23,1243,0,3,368.7000000476837,443,H
2022-12-05T22:29:05Z,nj1xo326,serial-reaction-time,1,P,5,1,24,1243,0,3,332.5,433,H
2022-12-05T22:29:06Z,nj1xo326,serial-reaction-time,1,R,5,1,25,1243,0,4,551.1999999284744,334,L
2022-12-05T22:29:07Z,nj1xo326,serial-reaction-time,1,P,5,1,26,1243,0,1,578.8999999761581,341,H
2022-12-05T22:29:07Z,nj1xo326,serial-reaction-time,1,R,5,1,27,1243,0,3,446.60000002384186,413,H
2022-12-05T22:29:08Z,nj1xo326,serial-reaction-time,1,P,5,1,28,1243,0,2,498.39999997615814,132,H
2022-12-05T22:29:08Z,nj1xo326,serial-reaction-time,1,R,5,1,29,1243,0,4,361.5,324,L
2022-12-05T22:29:09Z,nj1xo326,serial-reaction-time,1,P,5,1,30,1243,0,4,339.59999990463257,244,H
2022-12-05T22:29:09Z,nj1xo326,serial-reaction-time,1,R,5,1,31,1243,0,1,432.2999999523163,441,L
2022-12-05T22:29:10Z,nj1xo326,serial-reaction-time,1,P,5,1,32,1243,0,3,377.90000009536743,413,H
2022-12-05T22:29:10Z,nj1xo326,serial-reaction-time,1,R,5,1,33,1243,0,3,352.8000000715256,133,L
2022-12-05T22:29:11Z,nj1xo326,serial-reaction-time,1,P,5,1,34,1243,0,1,430,331,H
2022-12-05T22:29:11Z,nj1xo326,serial-reaction-time,1,R,5,1,35,1243,0,2,416.39999997615814,312,L
2022-12-05T22:29:12Z,nj1xo326,serial-reaction-time,1,P,5,1,36,1243,0,2,724.7999999523163,122,H
2022-12-05T22:29:13Z,nj1xo326,serial-reaction-time,1,R,5,1,37,1243,0,2,632.4000000953674,222,R
2022-12-05T22:29:14Z,nj1xo326,serial-reaction-time,1,P,5,1,38,1243,0,4,1086,224,H
2022-12-05T22:29:15Z,nj1xo326,serial-reaction-time,1,R,5,1,39,1243,0,2,758.1999999284744,242,T
2022-12-05T22:29:16Z,nj1xo326,serial-reaction-time,1,P,5,1,40,1243,0,3,676.2999999523163,423,H
2022-12-05T22:29:17Z,nj1xo326,serial-reaction-time,1,R,5,1,41,1243,0,3,409.1999999284744,233,L
2022-12-05T22:29:17Z,nj1xo326,serial-reaction-time,1,P,5,1,42,1243,0,1,415.40000009536743,331,H
2022-12-05T22:29:18Z,nj1xo326,serial-reaction-time,1,R,5,1,43,1243,0,3,445.60000002384186,313,T
2022-12-05T22:29:19Z,nj1xo326,serial-reaction-time,1,P,5,1,44,1243,0,2,640.5,132,H
2022-12-05T22:29:19Z,nj1xo326,serial-reaction-time,1,R,5,1,45,1243,0,3,669.1999999284744,323,T
2022-12-05T22:29:20Z,nj1xo326,serial-reaction-time,1,P,5,1,46,1243,0,4,385.7999999523163,234,H
2022-12-05T22:29:20Z,nj1xo326,serial-reaction-time,1,R,5,1,47,1243,0,3,361.3000000715256,343,T
2022-12-05T22:29:21Z,nj1xo326,serial-reaction-time,1,P,5,1,48,1243,0,3,360.60000002384186,433,H
2022-12-05T22:29:21Z,nj1xo326,serial-reaction-time,1,R,5,1,49,1243,0,2,495,332,L
2022-12-05T22:29:22Z,nj1xo326,serial-reaction-time,1,P,5,1,50,1243,0,1,406.5,321,H
2022-12-05T22:29:23Z,nj1xo326,serial-reaction-time,1,R,5,1,51,1243,0,4,373.7000000476837,214,H
2022-12-05T22:29:23Z,nj1xo326,serial-reaction-time,NA,P,5,1,52,1243,0,2,328.60000002384186,142,H
2022-12-05T22:29:23Z,nj1xo326,serial-reaction-time,1,P,5,0,52,1243,0,2,565.1000000238419,142,H
2022-12-05T22:29:24Z,nj1xo326,serial-reaction-time,1,R,5,1,53,1243,0,2,323.8000000715256,422,L
2022-12-05T22:29:24Z,nj1xo326,serial-reaction-time,1,P,5,1,54,1243,0,4,363.39999997615814,224,H
2022-12-05T22:29:25Z,nj1xo326,serial-reaction-time,1,R,5,1,55,1243,0,4,368.60000002384186,244,H
2022-12-05T22:29:25Z,nj1xo326,serial-reaction-time,1,P,5,1,56,1243,0,3,442,443,H
2022-12-05T22:29:26Z,nj1xo326,serial-reaction-time,1,R,5,1,57,1243,0,2,360.2999999523163,432,L
2022-12-05T22:29:26Z,nj1xo326,serial-reaction-time,1,P,5,1,58,1243,0,1,397.8000000715256,321,H
2022-12-05T22:29:27Z,nj1xo326,serial-reaction-time,1,R,5,1,59,1243,0,2,637.2000000476837,212,T
2022-12-05T22:29:28Z,nj1xo326,serial-reaction-time,1,P,5,1,60,1243,0,2,334.60000002384186,122,H
2022-12-05T22:29:28Z,nj1xo326,serial-reaction-time,1,R,5,1,61,1243,0,3,404.3000000715256,223,L
2022-12-05T22:29:29Z,nj1xo326,serial-reaction-time,1,P,5,1,62,1243,0,4,381.7999999523163,234,H
2022-12-05T22:29:29Z,nj1xo326,serial-reaction-time,1,R,5,1,63,1243,0,2,341,342,L
2022-12-05T22:29:30Z,nj1xo326,serial-reaction-time,1,P,5,1,64,1243,0,3,390,423,H
2022-12-05T22:29:30Z,nj1xo326,serial-reaction-time,1,R,5,1,65,1243,0,2,524.8999999761581,232,T
2022-12-05T22:29:31Z,nj1xo326,serial-reaction-time,1,P,5,1,66,1243,0,1,372.2000000476837,321,H
2022-12-05T22:29:31Z,nj1xo326,serial-reaction-time,1,R,5,1,67,1243,0,2,321.60000002384186,212,T
2022-12-05T22:29:32Z,nj1xo326,serial-reaction-time,1,P,5,1,68,1243,0,2,349.10000002384186,122,H
2022-12-05T22:29:32Z,nj1xo326,serial-reaction-time,1,R,5,1,69,1243,0,2,373.8000000715256,222,R
2022-12-05T22:29:33Z,nj1xo326,serial-reaction-time,1,P,5,1,70,1243,0,4,437.7999999523163,224,H
2022-12-05T22:29:33Z,nj1xo326,serial-reaction-time,1,R,5,1,71,1243,0,2,337.39999997615814,242,T
2022-12-05T22:29:34Z,nj1xo326,serial-reaction-time,1,P,5,1,72,1243,0,3,538.6000000238419,423,H
2022-12-05T22:29:35Z,nj1xo326,serial-reaction-time,1,R,5,1,73,1243,0,4,535.3999999761581,234,H
2022-12-05T22:29:35Z,nj1xo326,serial-reaction-time,NA,P,5,1,74,1243,0,1,376.10000002384186,341,H
2022-12-05T22:29:36Z,nj1xo326,serial-reaction-time,1,P,5,0,74,1243,0,1,679.2999999523163,341,H
2022-12-05T22:29:36Z,nj1xo326,serial-reaction-time,1,R,5,1,75,1243,0,4,561.5,414,T
2022-12-05T22:29:37Z,nj1xo326,serial-reaction-time,1,P,5,1,76,1243,0,2,393.7999999523163,142,H
2022-12-05T22:29:37Z,nj1xo326,serial-reaction-time,NA,R,5,1,77,1243,0,1,304.5,421,L
2022-12-05T22:29:38Z,nj1xo326,serial-reaction-time,1,R,5,0,77,1243,0,1,567.2999999523163,421,L
2022-12-05T22:29:38Z,nj1xo326,serial-reaction-time,1,P,5,1,78,1243,0,4,481.60000002384186,214,H
2022-12-05T22:29:39Z,nj1xo326,serial-reaction-time,NA,R,5,1,79,1243,0,1,475.89999997615814,141,T
2022-12-05T22:29:39Z,nj1xo326,serial-reaction-time,1,R,5,0,79,1243,0,1,763,141,T
2022-12-05T22:29:40Z,nj1xo326,serial-reaction-time,1,P,5,1,80,1243,0,3,437.1999999284744,413,H
2022-12-05T22:29:45Z,nj1xo326,html-keyboard-response,NA,NA,NA,NA,NA,NA,NA,NA,NA,NA,NA
2022-12-05T22:29:48Z,nj1xo326,html-keyboard-response,NA,NA,NA,NA,NA,NA,NA,NA,NA,NA,NA
2022-12-05T22:29:49Z,nj1xo326,fullscreen,NA,NA,NA,NA,NA,NA,NA,NA,NA,NA,NA
2022-12-05T22:27:57Z,twjbvnlp,fullscreen,NA,NA,NA,NA,NA,NA,NA,NA,NA,NA,NA
2022-12-05T22:28:02Z,twjbvnlp,html-keyboard-response,NA,NA,NA,NA,NA,NA,NA,NA,NA,NA,NA
2022-12-05T22:28:04Z,twjbvnlp,serial-reaction-time,1,R,1,1,1,1324,0,1,481.5,1,X
2022-12-05T22:28:04Z,twjbvnlp,serial-reaction-time,1,P,1,1,2,1324,0,1,299.2000002861023,11,X
2022-12-05T22:28:05Z,twjbvnlp,serial-reaction-time,NA,R,1,1,3,1324,0,4,181,114,L
2022-12-05T22:28:05Z,twjbvnlp,serial-reaction-time,1,R,1,0,3,1324,0,4,338.3999996185303,114,L
2022-12-05T22:28:05Z,twjbvnlp,serial-reaction-time,NA,P,1,1,4,1324,0,3,231.5,143,H
2022-12-05T22:28:05Z,twjbvnlp,serial-reaction-time,1,P,1,0,4,1324,0,3,409.2000002861023,143,H
2022-12-05T22:28:06Z,twjbvnlp,serial-reaction-time,1,R,1,1,5,1324,0,1,320.59999990463257,431,H
2022-12-05T22:28:06Z,twjbvnlp,serial-reaction-time,1,P,1,1,6,1324,0,2,378.5,312,H
2022-12-05T22:28:07Z,twjbvnlp,serial-reaction-time,NA,R,1,1,7,1324,0,2,248.59999990463257,122,L
2022-12-05T22:28:07Z,twjbvnlp,serial-reaction-time,1,R,1,0,7,1324,0,2,456.09999990463257,122,L
2022-12-05T22:28:07Z,twjbvnlp,serial-reaction-time,1,P,1,1,8,1324,0,4,278.09999990463257,224,H
2022-12-05T22:28:08Z,twjbvnlp,serial-reaction-time,1,R,1,1,9,1324,0,3,330,243,L
2022-12-05T22:28:08Z,twjbvnlp,serial-reaction-time,1,P,1,1,10,1324,0,1,269.30000019073486,431,H
2022-12-05T22:28:09Z,twjbvnlp,serial-reaction-time,1,R,1,1,11,1324,0,4,304.2999997138977,314,L
2022-12-05T22:28:09Z,twjbvnlp,serial-reaction-time,1,P,1,1,12,1324,0,3,385.19999980926514,143,H
2022-12-05T22:28:10Z,twjbvnlp,serial-reaction-time,1,R,1,1,13,1324,0,3,291,433,L
2022-12-05T22:28:10Z,twjbvnlp,serial-reaction-time,NA,P,1,1,14,1324,0,2,261.19999980926514,332,H
2022-12-05T22:28:10Z,twjbvnlp,serial-reaction-time,1,P,1,0,14,1324,0,2,539.7999997138977,332,H
2022-12-05T22:28:11Z,twjbvnlp,serial-reaction-time,1,R,1,1,15,1324,0,1,334,321,L
2022-12-05T22:28:11Z,twjbvnlp,serial-reaction-time,1,P,1,1,16,1324,0,4,234.6999998092651,214,H
2022-12-05T22:28:12Z,twjbvnlp,serial-reaction-time,1,R,1,1,17,1324,0,4,282.19999980926514,144,L
2022-12-05T22:28:12Z,twjbvnlp,serial-reaction-time,1,P,1,1,18,1324,0,1,348,441,H
2022-12-05T22:28:12Z,twjbvnlp,serial-reaction-time,1,R,1,1,19,1324,0,1,224.59999990463257,411,H
2022-12-05T22:28:13Z,twjbvnlp,serial-reaction-time,1,P,1,1,20,1324,0,3,327.30000019073486,113,H
2022-12-05T22:28:13Z,twjbvnlp,serial-reaction-time,1,R,1,1,21,1324,0,4,298,134,L
2022-12-05T22:28:14Z,twjbvnlp,serial-reaction-time,1,P,1,1,22,1324,0,2,406,342,H
2022-12-05T22:28:14Z,twjbvnlp,serial-reaction-time,1,R,1,1,23,1324,0,4,341.5,424,T
2022-12-05T22:28:15Z,twjbvnlp,serial-reaction-time,1,P,1,1,24,1324,0,4,277.30000019073486,244,H
2022-12-05T22:28:15Z,twjbvnlp,serial-reaction-time,NA,R,1,1,25,1324,0,2,329.19999980926514,442,L
2022-12-05T22:28:16Z,twjbvnlp,serial-reaction-time,1,R,1,0,25,1324,0,2,648.9000000953674,442,L
2022-12-05T22:28:16Z,twjbvnlp,serial-reaction-time,1,P,1,1,26,1324,0,1,355.3999996185303,421,H
2022-12-05T22:28:17Z,twjbvnlp,serial-reaction-time,1,R,1,1,27,1324,0,1,320.09999990463257,211,L
2022-12-05T22:28:17Z,twjbvnlp,serial-reaction-time,1,P,1,1,28,1324,0,3,305.09999990463257,113,H
2022-12-05T22:28:17Z,twjbvnlp,serial-reaction-time,1,R,1,1,29,1324,0,1,341.80000019073486,131,T
2022-12-05T22:28:18Z,twjbvnlp,serial-reaction-time,1,P,1,1,30,1324,0,2,514.2999997138977,312,H
2022-12-05T22:28:19Z,twjbvnlp,serial-reaction-time,1,R,1,1,31,1324,0,1,487.59999990463257,121,T
2022-12-05T22:28:19Z,twjbvnlp,serial-reaction-time,1,P,1,1,32,1324,0,4,327.30000019073486,214,H
2022-12-05T22:28:20Z,twjbvnlp,serial-reaction-time,1,R,1,1,33,1324,0,1,391.2000002861023,141,T
2022-12-05T22:28:20Z,twjbvnlp,serial-reaction-time,1,P,1,1,34,1324,0,1,262.2000002861023,411,H
2022-12-05T22:28:20Z,twjbvnlp,serial-reaction-time,1,R,1,1,35,1324,0,4,283.80000019073486,114,L
2022-12-05T22:28:21Z,twjbvnlp,serial-reaction-time,1,P,1,1,36,1324,0,3,369.30000019073486,143,H
2022-12-05T22:28:21Z,twjbvnlp,serial-reaction-time,1,R,1,1,37,1324,0,1,370.69999980926514,431,H
2022-12-05T22:28:22Z,twjbvnlp,serial-reaction-time,1,P,1,1,38,1324,0,2,465.40000009536743,312,H
2022-12-05T22:28:22Z,twjbvnlp,serial-reaction-time,1,R,1,1,39,1324,0,2,218.3000001907349,122,L
2022-12-05T22:28:23Z,twjbvnlp,serial-reaction-time,1,P,1,1,40,1324,0,4,327.40000009536743,224,H
2022-12-05T22:28:23Z,twjbvnlp,serial-reaction-time,1,R,1,1,41,1324,0,3,294,243,L
2022-12-05T22:28:24Z,twjbvnlp,serial-reaction-time,1,P,1,1,42,1324,0,1,311.09999990463257,431,H
2022-12-05T22:28:24Z,twjbvnlp,serial-reaction-time,1,R,1,1,43,1324,0,1,295.6000003814697,311,L
2022-12-05T22:28:25Z,twjbvnlp,serial-reaction-time,NA,P,1,1,44,1324,0,3,267.09999990463257,113,H
2022-12-05T22:28:25Z,twjbvnlp,serial-reaction-time,1,P,1,0,44,1324,0,3,485.40000009536743,113,H
2022-12-05T22:28:25Z,twjbvnlp,serial-reaction-time,1,R,1,1,45,1324,0,4,292.90000009536743,134,L
2022-12-05T22:28:26Z,twjbvnlp,serial-reaction-time,1,P,1,1,46,1324,0,2,299.09999990463257,342,H
2022-12-05T22:28:26Z,twjbvnlp,serial-reaction-time,1,R,1,1,47,1324,0,3,314.59999990463257,423,L
2022-12-05T22:28:27Z,twjbvnlp,serial-reaction-time,1,P,1,1,48,1324,0,4,338.2999997138977,234,H
2022-12-05T22:28:27Z,twjbvnlp,serial-reaction-time,1,R,1,1,49,1324,0,2,403.7999997138977,342,H
2022-12-05T22:28:28Z,twjbvnlp,serial-reaction-time,1,P,1,1,50,1324,0,1,405.5,421,H
2022-12-05T22:28:28Z,twjbvnlp,serial-reaction-time,1,R,1,1,51,1324,0,3,343.19999980926514,213,L
2022-12-05T22:28:29Z,twjbvnlp,serial-reaction-time,1,P,1,1,52,1324,0,3,278.09999990463257,133,H
2022-12-05T22:28:29Z,twjbvnlp,serial-reaction-time,1,R,1,1,53,1324,0,4,276.2999997138977,334,L
2022-12-05T22:28:29Z,twjbvnlp,serial-reaction-time,1,P,1,1,54,1324,0,2,401.40000009536743,342,H
2022-12-05T22:28:30Z,twjbvnlp,serial-reaction-time,1,R,1,1,55,1324,0,3,437.2999997138977,423,L
2022-12-05T22:28:31Z,twjbvnlp,serial-reaction-time,NA,P,1,1,56,1324,0,4,448.30000019073486,234,H
2022-12-05T22:28:31Z,twjbvnlp,serial-reaction-time,1,P,1,0,56,1324,0,4,715.5,234,H
2022-12-05T22:28:32Z,twjbvnlp,serial-reaction-time,1,R,1,1,57,1324,0,4,509.69999980926514,344,L
2022-12-05T22:28:32Z,twjbvnlp,serial-reaction-time,1,P,1,1,58,1324,0,1,307.09999990463257,441,H
2022-12-05T22:28:32Z,twjbvnlp,serial-reaction-time,1,R,1,1,59,1324,0,1,315.5,411,H
2022-12-05T22:28:33Z,twjbvnlp,serial-reaction-time,1,P,1,1,60,1324,0,3,309.19999980926514,113,H
2022-12-05T22:28:33Z,twjbvnlp,serial-reaction-time,1,R,1,1,61,1324,0,3,294,133,H
2022-12-05T22:28:34Z,twjbvnlp,serial-reaction-time,1,P,1,1,62,1324,0,2,308.59999990463257,332,H
2022-12-05T22:28:34Z,twjbvnlp,serial-reaction-time,1,R,1,1,63,1324,0,2,315.90000009536743,322,H
2022-12-05T22:28:35Z,twjbvnlp,serial-reaction-time,1,P,1,1,64,1324,0,4,279.2999997138977,224,H
2022-12-05T22:28:35Z,twjbvnlp,serial-reaction-time,1,R,1,1,65,1324,0,1,289.2999997138977,241,L
2022-12-05T22:28:35Z,twjbvnlp,serial-reaction-time,1,P,1,1,66,1324,0,1,298.5,411,H
2022-12-05T22:28:36Z,twjbvnlp,serial-reaction-time,1,R,1,1,67,1324,0,4,303.40000009536743,114,L
2022-12-05T22:28:36Z,twjbvnlp,serial-reaction-time,1,P,1,1,68,1324,0,3,334.5,143,H
2022-12-05T22:28:37Z,twjbvnlp,serial-reaction-time,1,R,1,1,69,1324,0,4,295,434,T
2022-12-05T22:28:37Z,twjbvnlp,serial-reaction-time,1,P,1,1,70,1324,0,2,354.2000002861023,342,H
2022-12-05T22:28:38Z,twjbvnlp,serial-reaction-time,1,R,1,1,71,1324,0,1,312.2999997138977,421,H
2022-12-05T22:28:38Z,twjbvnlp,serial-reaction-time,1,P,1,1,72,1324,0,4,315.5,214,H
2022-12-05T22:28:39Z,twjbvnlp,serial-reaction-time,1,R,1,1,73,1324,0,2,387.5,142,L
2022-12-05T22:28:39Z,twjbvnlp,serial-reaction-time,1,P,1,1,74,1324,0,1,326.19999980926514,421,H
2022-12-05T22:28:39Z,twjbvnlp,serial-reaction-time,1,R,1,1,75,1324,0,4,299.5,214,H
2022-12-05T22:28:40Z,twjbvnlp,serial-reaction-time,1,P,1,1,76,1324,0,3,284.19999980926514,143,H
2022-12-05T22:28:40Z,twjbvnlp,serial-reaction-time,NA,R,1,1,77,1324,0,1,349.30000019073486,431,H
2022-12-05T22:28:41Z,twjbvnlp,serial-reaction-time,1,R,1,0,77,1324,0,1,663.7000002861023,431,H
2022-12-05T22:28:41Z,twjbvnlp,serial-reaction-time,NA,P,1,1,78,1324,0,2,375.7999997138977,312,H
2022-12-05T22:28:41Z,twjbvnlp,serial-reaction-time,1,P,1,0,78,1324,0,2,630.0999994277954,312,H
2022-12-05T22:28:42Z,twjbvnlp,serial-reaction-time,1,R,1,1,79,1324,0,1,627.5,121,T
2022-12-05T22:28:43Z,twjbvnlp,serial-reaction-time,1,P,1,1,80,1324,0,4,293.90000009536743,214,H
2022-12-05T22:28:48Z,twjbvnlp,html-keyboard-response,NA,NA,NA,NA,NA,NA,NA,NA,NA,NA,NA
2022-12-05T22:28:52Z,twjbvnlp,html-keyboard-response,NA,NA,NA,NA,NA,NA,NA,NA,NA,NA,NA
2022-12-05T22:28:53Z,twjbvnlp,serial-reaction-time,1,R,2,1,1,1324,0,4,313.19999980926514,4,X
2022-12-05T22:28:53Z,twjbvnlp,serial-reaction-time,1,P,2,1,2,1324,0,1,277.40000009536743,41,X
2022-12-05T22:28:54Z,twjbvnlp,serial-reaction-time,NA,R,2,1,3,1324,0,2,361.59999990463257,412,L
2022-12-05T22:28:54Z,twjbvnlp,serial-reaction-time,1,R,2,0,3,1324,0,2,429.59999990463257,412,L
2022-12-05T22:28:54Z,twjbvnlp,serial-reaction-time,1,P,2,1,4,1324,0,3,363.90000009536743,123,H
2022-12-05T22:28:55Z,twjbvnlp,serial-reaction-time,1,R,2,1,5,1324,0,3,249,233,L
2022-12-05T22:28:55Z,twjbvnlp,serial-reaction-time,1,P,2,1,6,1324,0,2,327.30000019073486,332,H
2022-12-05T22:28:56Z,twjbvnlp,serial-reaction-time,1,R,2,1,7,1324,0,4,279.80000019073486,324,L
2022-12-05T22:28:56Z,twjbvnlp,serial-reaction-time,1,P,2,1,8,1324,0,4,274.09999990463257,244,H
2022-12-05T22:28:56Z,twjbvnlp,serial-reaction-time,1,R,2,1,9,1324,0,4,296.5,444,R
2022-12-05T22:28:57Z,twjbvnlp,serial-reaction-time,1,P,2,1,10,1324,0,1,293.80000019073486,441,H
2022-12-05T22:28:57Z,twjbvnlp,serial-reaction-time,1,R,2,1,11,1324,0,2,312.5,412,L
2022-12-05T22:28:58Z,twjbvnlp,serial-reaction-time,1,P,2,1,12,1324,0,3,358.7999997138977,123,H
2022-12-05T22:28:58Z,twjbvnlp,serial-reaction-time,1,R,2,1,13,1324,0,4,288.90000009536743,234,H
2022-12-05T22:28:59Z,twjbvnlp,serial-reaction-time,1,P,2,1,14,1324,0,2,320.90000009536743,342,H
2022-12-05T22:28:59Z,twjbvnlp,serial-reaction-time,1,R,2,1,15,1324,0,3,301.5,423,L
2022-12-05T22:28:59Z,twjbvnlp,serial-reaction-time,1,P,2,1,16,1324,0,4,296.7000002861023,234,H
2022-12-05T22:29:00Z,twjbvnlp,serial-reaction-time,1,R,2,1,17,1324,0,4,280.5,344,L
2022-12-05T22:29:00Z,twjbvnlp,serial-reaction-time,1,P,2,1,18,1324,0,1,350.2999997138977,441,H
2022-12-05T22:29:01Z,twjbvnlp,serial-reaction-time,1,R,2,1,19,1324,0,3,346.40000009536743,413,L
2022-12-05T22:29:01Z,twjbvnlp,serial-reaction-time,NA,P,2,1,20,1324,0,3,285.3999996185303,133,H
2022-12-05T22:29:02Z,twjbvnlp,serial-reaction-time,1,P,2,0,20,1324,0,3,637.9999995231628,133,H
2022-12-05T22:29:02Z,twjbvnlp,serial-reaction-time,1,R,2,1,21,1324,0,1,385.19999980926514,331,L
2022-12-05T22:29:03Z,twjbvnlp,serial-reaction-time,1,P,2,1,22,1324,0,2,394.6000003814697,312,H
2022-12-05T22:29:03Z,twjbvnlp,serial-reaction-time,1,R,2,1,23,1324,0,1,333,121,T
2022-12-05T22:29:04Z,twjbvnlp,serial-reaction-time,1,P,2,1,24,1324,0,4,287.2000002861023,214,H
2022-12-05T22:29:04Z,twjbvnlp,serial-reaction-time,1,R,2,1,25,1324,0,1,330.19999980926514,141,T
2022-12-05T22:29:04Z,twjbvnlp,serial-reaction-time,1,P,2,1,26,1324,0,1,225.5,411,H
2022-12-05T22:29:05Z,twjbvnlp,serial-reaction-time,NA,R,2,1,27,1324,0,2,347.3999996185303,112,L
2022-12-05T22:29:05Z,twjbvnlp,serial-reaction-time,1,R,2,0,27,1324,0,2,539.199999332428,112,L
2022-12-05T22:29:05Z,twjbvnlp,serial-reaction-time,1,P,2,1,28,1324,0,3,332.09999990463257,123,H
2022-12-05T22:29:06Z,twjbvnlp,serial-reaction-time,1,R,2,1,29,1324,0,4,292.19999980926514,234,H
2022-12-05T22:29:06Z,twjbvnlp,serial-reaction-time,1,P,2,1,30,1324,0,2,354.90000009536743,342,H
2022-12-05T22:29:07Z,twjbvnlp,serial-reaction-time,1,R,2,1,31,1324,0,4,436.30000019073486,424,T
2022-12-05T22:29:07Z,twjbvnlp,serial-reaction-time,1,P,2,1,32,1324,0,4,260.90000009536743,244,H
2022-12-05T22:29:08Z,twjbvnlp,serial-reaction-time,1,R,2,1,33,1324,0,3,362.2999997138977,443,L
2022-12-05T22:29:08Z,twjbvnlp,serial-reaction-time,1,P,2,1,34,1324,0,1,349.3999996185303,431,H
2022-12-05T22:29:09Z,twjbvnlp,serial-reaction-time,1,R,2,1,35,1324,0,3,401.59999990463257,313,T
2022-12-05T22:29:09Z,twjbvnlp,serial-reaction-time,1,P,2,1,36,1324,0,3,238,133,H
2022-12-05T22:29:10Z,twjbvnlp,serial-reaction-time,1,R,2,1,37,1324,0,2,392.40000009536743,332,H
2022-12-05T22:29:10Z,twjbvnlp,serial-reaction-time,1,P,2,1,38,1324,0,2,251.6999998092651,322,H
2022-12-05T22:29:11Z,twjbvnlp,serial-reaction-time,1,R,2,1,39,1324,0,3,415.5,223,L
2022-12-05T22:29:11Z,twjbvnlp,serial-reaction-time,1,P,2,1,40,1324,0,4,286.8999996185303,234,H
2022-12-05T22:29:12Z,twjbvnlp,serial-reaction-time,1,R,2,1,41,1324,0,1,328.2000002861023,341,L
2022-12-05T22:29:12Z,twjbvnlp,serial-reaction-time,1,P,2,1,42,1324,0,1,273.3999996185303,411,H
2022-12-05T22:29:12Z,twjbvnlp,serial-reaction-time,1,R,2,1,43,1324,0,4,322.5,114,L
2022-12-05T22:29:13Z,twjbvnlp,serial-reaction-time,1,P,2,1,44,1324,0,3,350.7999997138977,143,H
2022-12-05T22:29:13Z,twjbvnlp,serial-reaction-time,1,R,2,1,45,1324,0,1,312.40000009536743,431,H
2022-12-05T22:29:14Z,twjbvnlp,serial-reaction-time,1,P,2,1,46,1324,0,2,360.8999996185303,312,H
2022-12-05T22:29:14Z,twjbvnlp,serial-reaction-time,1,R,2,1,47,1324,0,2,290,122,L
2022-12-05T22:29:15Z,twjbvnlp,serial-reaction-time,1,P,2,1,48,1324,0,4,305,224,H
2022-12-05T22:29:15Z,twjbvnlp,serial-reaction-time,1,R,2,1,49,1324,0,4,290.90000009536743,244,H
2022-12-05T22:29:15Z,twjbvnlp,serial-reaction-time,1,P,2,1,50,1324,0,1,305,441,H
2022-12-05T22:29:16Z,twjbvnlp,serial-reaction-time,1,R,2,1,51,1324,0,3,361.2000002861023,413,L
2022-12-05T22:29:16Z,twjbvnlp,serial-reaction-time,1,P,2,1,52,1324,0,3,337.2999997138977,133,H
2022-12-05T22:29:17Z,twjbvnlp,serial-reaction-time,1,R,2,1,53,1324,0,3,378.69999980926514,333,R
2022-12-05T22:29:17Z,twjbvnlp,serial-reaction-time,1,P,2,1,54,1324,0,2,286.40000009536743,332,H
2022-12-05T22:29:18Z,twjbvnlp,serial-reaction-time,NA,R,2,1,55,1324,0,3,345.40000009536743,323,T
2022-12-05T22:29:18Z,twjbvnlp,serial-reaction-time,1,R,2,0,55,1324,0,3,616.3000001907349,323,T
2022-12-05T22:29:19Z,twjbvnlp,serial-reaction-time,1,P,2,1,56,1324,0,4,276.59999990463257,234,H
2022-12-05T22:29:19Z,twjbvnlp,serial-reaction-time,1,R,2,1,57,1324,0,4,260.40000009536743,344,L
2022-12-05T22:29:19Z,twjbvnlp,serial-reaction-time,1,P,2,1,58,1324,0,1,294.59999990463257,441,H
2022-12-05T22:29:20Z,twjbvnlp,serial-reaction-time,1,R,2,1,59,1324,0,1,256.3999996185303,411,H
2022-12-05T22:29:20Z,twjbvnlp,serial-reaction-time,1,P,2,1,60,1324,0,3,342.2000002861023,113,H
2022-12-05T22:29:21Z,twjbvnlp,serial-reaction-time,1,R,2,1,61,1324,0,1,373.6000003814697,131,T
2022-12-05T22:29:21Z,twjbvnlp,serial-reaction-time,1,P,2,1,62,1324,0,2,488.69999980926514,312,H
2022-12-05T22:29:22Z,twjbvnlp,serial-reaction-time,NA,R,2,1,63,1324,0,3,407.40000009536743,123,H
2022-12-05T22:29:22Z,twjbvnlp,serial-reaction-time,1,R,2,0,63,1324,0,3,420,123,H
2022-12-05T22:29:23Z,twjbvnlp,serial-reaction-time,NA,P,2,1,64,1324,0,4,525.4000000953674,234,H
2022-12-05T22:29:23Z,twjbvnlp,serial-reaction-time,1,P,2,0,64,1324,0,4,708.6000003814697,234,H
2022-12-05T22:29:23Z,twjbvnlp,serial-reaction-time,1,R,2,1,65,1324,0,3,373,343,T
2022-12-05T22:29:24Z,twjbvnlp,serial-reaction-time,1,P,2,1,66,1324,0,1,441.59999990463257,431,H
2022-12-05T22:29:24Z,twjbvnlp,serial-reaction-time,NA,R,2,1,67,1324,0,2,188.59999990463257,312,H
2022-12-05T22:29:24Z,twjbvnlp,serial-reaction-time,1,R,2,0,67,1324,0,2,492.30000019073486,312,H
2022-12-05T22:29:25Z,twjbvnlp,serial-reaction-time,1,P,2,1,68,1324,0,3,475.90000009536743,123,H
2022-12-05T22:29:26Z,twjbvnlp,serial-reaction-time,1,R,2,1,69,1324,0,1,409.8999996185303,231,L
2022-12-05T22:29:26Z,twjbvnlp,serial-reaction-time,1,P,2,1,70,1324,0,2,390.30000019073486,312,H
2022-12-05T22:29:27Z,twjbvnlp,serial-reaction-time,1,R,2,1,71,1324,0,3,327.59999990463257,123,H
2022-12-05T22:29:27Z,twjbvnlp,serial-reaction-time,1,P,2,1,72,1324,0,4,354.69999980926514,234,H
2022-12-05T22:29:28Z,twjbvnlp,serial-reaction-time,1,R,2,1,73,1324,0,3,383.90000009536743,343,T
2022-12-05T22:29:28Z,twjbvnlp,serial-reaction-time,1,P,2,1,74,1324,0,1,303.40000009536743,431,H
2022-12-05T22:29:28Z,twjbvnlp,serial-reaction-time,1,R,2,1,75,1324,0,1,313.19999980926514,311,L
2022-12-05T22:29:29Z,twjbvnlp,serial-reaction-time,1,P,2,1,76,1324,0,3,339.69999980926514,113,H
2022-12-05T22:29:29Z,twjbvnlp,serial-reaction-time,1,R,2,1,77,1324,0,4,342.40000009536743,134,L
2022-12-05T22:29:30Z,twjbvnlp,serial-reaction-time,1,P,2,1,78,1324,0,2,408.09999990463257,342,H
2022-12-05T22:29:30Z,twjbvnlp,serial-reaction-time,1,R,2,1,79,1324,0,3,304.19999980926514,423,L
2022-12-05T22:29:31Z,twjbvnlp,serial-reaction-time,1,P,2,1,80,1324,0,4,350.69999980926514,234,H
2022-12-05T22:29:36Z,twjbvnlp,html-keyboard-response,NA,NA,NA,NA,NA,NA,NA,NA,NA,NA,NA
2022-12-05T22:29:37Z,twjbvnlp,html-keyboard-response,NA,NA,NA,NA,NA,NA,NA,NA,NA,NA,NA
2022-12-05T22:29:39Z,twjbvnlp,serial-reaction-time,1,R,3,1,1,1324,0,4,401.5,4,X
2022-12-05T22:29:39Z,twjbvnlp,serial-reaction-time,1,P,3,1,2,1324,0,1,302.59999990463257,41,X
2022-12-05T22:29:40Z,twjbvnlp,serial-reaction-time,1,R,3,1,3,1324,0,1,268.3999996185303,411,H
2022-12-05T22:29:40Z,twjbvnlp,serial-reaction-time,1,P,3,1,4,1324,0,3,282.7000002861023,113,H
2022-12-05T22:29:41Z,twjbvnlp,serial-reaction-time,1,R,3,1,5,1324,0,1,364.90000009536743,131,T
2022-12-05T22:29:41Z,twjbvnlp,serial-reaction-time,1,P,3,1,6,1324,0,2,594.4000000953674,312,H
2022-12-05T22:29:42Z,twjbvnlp,serial-reaction-time,1,R,3,1,7,1324,0,1,353.59999990463257,121,T
2022-12-05T22:29:42Z,twjbvnlp,serial-reaction-time,1,P,3,1,8,1324,0,4,289.59999990463257,214,H
2022-12-05T22:29:43Z,twjbvnlp,serial-reaction-time,1,R,3,1,9,1324,0,3,329.90000009536743,143,H
2022-12-05T22:29:43Z,twjbvnlp,serial-reaction-time,1,P,3,1,10,1324,0,1,389,431,H
2022-12-05T22:29:44Z,twjbvnlp,serial-reaction-time,1,R,3,1,11,1324,0,4,330.09999990463257,314,L
2022-12-05T22:29:44Z,twjbvnlp,serial-reaction-time,1,P,3,1,12,1324,0,3,318.7999997138977,143,H
2022-12-05T22:29:45Z,twjbvnlp,serial-reaction-time,1,R,3,1,13,1324,0,4,316.7000002861023,434,T
2022-12-05T22:29:45Z,twjbvnlp,serial-reaction-time,NA,P,3,1,14,1324,0,2,276.5,342,H
2022-12-05T22:29:45Z,twjbvnlp,serial-reaction-time,1,P,3,0,14,1324,0,2,653.4000000953674,342,H
2022-12-05T22:29:46Z,twjbvnlp,serial-reaction-time,1,R,3,1,15,1324,0,1,346.09999990463257,421,H
2022-12-05T22:29:46Z,twjbvnlp,serial-reaction-time,1,P,3,1,16,1324,0,4,290,214,H
2022-12-05T22:29:47Z,twjbvnlp,serial-reaction-time,1,R,3,1,17,1324,0,4,251.6999998092651,144,L
2022-12-05T22:29:47Z,twjbvnlp,serial-reaction-time,1,P,3,1,18,1324,0,1,476.69999980926514,441,H
2022-12-05T22:29:48Z,twjbvnlp,serial-reaction-time,1,R,3,1,19,1324,0,3,393.59999990463257,413,L
2022-12-05T22:29:48Z,twjbvnlp,serial-reaction-time,1,P,3,1,20,1324,0,3,483.6000003814697,133,H
2022-12-05T22:29:49Z,twjbvnlp,serial-reaction-time,1,R,3,1,21,1324,0,3,303.7999997138977,333,R
2022-12-05T22:29:49Z,twjbvnlp,serial-reaction-time,1,P,3,1,22,1324,0,2,363.40000009536743,332,H
2022-12-05T22:29:50Z,twjbvnlp,serial-reaction-time,1,R,3,1,23,1324,0,4,370.30000019073486,324,L
2022-12-05T22:29:50Z,twjbvnlp,serial-reaction-time,1,P,3,1,24,1324,0,4,319.5,244,H
2022-12-05T22:29:51Z,twjbvnlp,serial-reaction-time,1,R,3,1,25,1324,0,3,430.90000009536743,443,L
2022-12-05T22:29:51Z,twjbvnlp,serial-reaction-time,1,P,3,1,26,1324,0,1,350.40000009536743,431,H
2022-12-05T22:29:52Z,twjbvnlp,serial-reaction-time,1,R,3,1,27,1324,0,2,472.40000009536743,312,H
2022-12-05T22:29:52Z,twjbvnlp,serial-reaction-time,1,P,3,1,28,1324,0,3,405.7999997138977,123,H
2022-12-05T22:29:53Z,twjbvnlp,serial-reaction-time,1,R,3,1,29,1324,0,4,305.2999997138977,234,H
2022-12-05T22:29:53Z,twjbvnlp,serial-reaction-time,NA,P,3,1,30,1324,0,2,434.2000002861023,342,H
2022-12-05T22:29:54Z,twjbvnlp,serial-reaction-time,1,P,3,0,30,1324,0,2,937.0000004768372,342,H
2022-12-05T22:29:54Z,twjbvnlp,serial-reaction-time,1,R,3,1,31,1324,0,2,321.19999980926514,422,L
2022-12-05T22:29:55Z,twjbvnlp,serial-reaction-time,1,P,3,1,32,1324,0,4,342.09999990463257,224,H
2022-12-05T22:29:55Z,twjbvnlp,serial-reaction-time,1,R,3,1,33,1324,0,2,356,242,T
2022-12-05T22:29:56Z,twjbvnlp,serial-reaction-time,1,P,3,1,34,1324,0,1,476.5,421,H
2022-12-05T22:29:56Z,twjbvnlp,serial-reaction-time,1,R,3,1,35,1324,0,4,369.30000019073486,214,H
2022-12-05T22:29:57Z,twjbvnlp,serial-reaction-time,1,P,3,1,36,1324,0,3,503.40000009536743,143,H
2022-12-05T22:29:58Z,twjbvnlp,serial-reaction-time,1,R,3,1,37,1324,0,1,285.40000009536743,431,H
2022-12-05T22:29:58Z,twjbvnlp,serial-reaction-time,1,P,3,1,38,1324,0,2,461.40000009536743,312,H
2022-12-05T22:29:59Z,twjbvnlp,serial-reaction-time,1,R,3,1,39,1324,0,1,391.59999990463257,121,T
2022-12-05T22:29:59Z,twjbvnlp,serial-reaction-time,1,P,3,1,40,1324,0,4,285.69999980926514,214,H
2022-12-05T22:30:00Z,twjbvnlp,serial-reaction-time,1,R,3,1,41,1324,0,1,436.30000019073486,141,T
2022-12-05T22:30:00Z,twjbvnlp,serial-reaction-time,1,P,3,1,42,1324,0,1,308.6000003814697,411,H
2022-12-05T22:30:01Z,twjbvnlp,serial-reaction-time,1,R,3,1,43,1324,0,2,369.5,112,L
2022-12-05T22:30:01Z,twjbvnlp,serial-reaction-time,1,P,3,1,44,1324,0,3,344.5,123,H
2022-12-05T22:30:01Z,twjbvnlp,serial-reaction-time,1,R,3,1,45,1324,0,4,278.90000009536743,234,H
2022-12-05T22:30:02Z,twjbvnlp,serial-reaction-time,NA,P,3,1,46,1324,0,2,299.6000003814697,342,H
2022-12-05T22:30:02Z,twjbvnlp,serial-reaction-time,1,P,3,0,46,1324,0,2,560.5000004768372,342,H
2022-12-05T22:30:03Z,twjbvnlp,serial-reaction-time,1,R,3,1,47,1324,0,4,335.30000019073486,424,T
2022-12-05T22:30:03Z,twjbvnlp,serial-reaction-time,1,P,3,1,48,1324,0,4,418.5,244,H
2022-12-05T22:30:04Z,twjbvnlp,serial-reaction-time,1,R,3,1,49,1324,0,2,394.6000003814697,442,L
2022-12-05T22:30:04Z,twjbvnlp,serial-reaction-time,1,P,3,1,50,1324,0,1,383.90000009536743,421,H
2022-12-05T22:30:05Z,twjbvnlp,serial-reaction-time,1,R,3,1,51,1324,0,4,350.5,214,H
2022-12-05T22:30:05Z,twjbvnlp,serial-reaction-time,NA,P,3,1,52,1324,0,3,380.69999980926514,143,H
2022-12-05T22:30:05Z,twjbvnlp,serial-reaction-time,1,P,3,0,52,1324,0,3,519,143,H
2022-12-05T22:30:06Z,twjbvnlp,serial-reaction-time,1,R,3,1,53,1324,0,2,351.6000003814697,432,L
2022-12-05T22:30:06Z,twjbvnlp,serial-reaction-time,1,P,3,1,54,1324,0,2,313.7999997138977,322,H
2022-12-05T22:30:07Z,twjbvnlp,serial-reaction-time,1,R,3,1,55,1324,0,2,269.19999980926514,222,R
