datetime,id,trial_type,correct,p_or_r,block,first_response,trial_number,sequence,is_practice,correct_pos,cumulative_rt,actual_triplet,triplet_type
2023-04-04T13:07:50Z,usnnjdm9,fullscreen,NA,NA,NA,NA,NA,NA,NA,NA,NA,NA,NA
2023-04-04T13:08:44Z,usnnjdm9,instructions,NA,NA,NA,NA,NA,NA,NA,NA,NA,NA,NA
2023-04-04T13:08:50Z,usnnjdm9,html-keyboard-response,NA,NA,NA,NA,NA,NA,NA,NA,NA,NA,NA
2023-04-04T13:08:51Z,usnnjdm9,serial-reaction-time,1,R,1,1,1,4321,1,2,606.6000000014901,2,X
2023-04-04T13:08:52Z,usnnjdm9,serial-reaction-time,1,R,1,1,2,4321,1,4,551.5,24,X
2023-04-04T13:08:52Z,usnnjdm9,serial-reaction-time,1,R,1,1,3,4321,1,1,486.19999999925494,241,X
2023-04-04T13:08:53Z,usnnjdm9,serial-reaction-time,1,R,1,1,4,4321,1,1,459.6000000014901,411,X
2023-04-04T13:08:54Z,usnnjdm9,serial-reaction-time,1,R,1,1,5,4321,1,1,448.9000000022352,111,X
2023-04-04T13:08:54Z,usnnjdm9,serial-reaction-time,1,R,1,1,6,4321,1,4,433.0999999977648,114,X
2023-04-04T13:08:55Z,usnnjdm9,serial-reaction-time,1,R,1,1,7,4321,1,4,419.0999999977648,144,X
2023-04-04T13:08:55Z,usnnjdm9,serial-reaction-time,1,R,1,1,8,4321,1,4,390.19999999925494,444,X
2023-04-04T13:08:56Z,usnnjdm9,serial-reaction-time,1,R,1,1,9,4321,1,3,516.1000000014901,443,X
2023-04-04T13:08:57Z,usnnjdm9,serial-reaction-time,1,R,1,1,10,4321,1,1,435.0999999977648,431,X
2023-04-04T13:08:57Z,usnnjdm9,serial-reaction-time,1,R,1,1,11,4321,1,1,450.19999999925494,311,X
2023-04-04T13:08:58Z,usnnjdm9,serial-reaction-time,1,R,1,1,12,4321,1,3,539.3000000007451,113,X
2023-04-04T13:08:58Z,usnnjdm9,serial-reaction-time,1,R,1,1,13,4321,1,1,374.80000000074506,131,X
2023-04-04T13:08:59Z,usnnjdm9,serial-reaction-time,1,R,1,1,14,4321,1,1,428.69999999925494,311,X
2023-04-04T13:09:00Z,usnnjdm9,serial-reaction-time,1,R,1,1,15,4321,1,3,430.80000000074506,113,X
2023-04-04T13:09:00Z,usnnjdm9,serial-reaction-time,1,R,1,1,16,4321,1,2,548.0999999977648,132,X
2023-04-04T13:09:01Z,usnnjdm9,serial-reaction-time,1,R,1,1,17,4321,1,2,381.4000000022352,322,X
2023-04-04T13:09:01Z,usnnjdm9,serial-reaction-time,1,R,1,1,18,4321,1,2,398.30000000074506,222,X
2023-04-04T13:09:02Z,usnnjdm9,serial-reaction-time,1,R,1,1,19,4321,1,1,350.3999999985099,221,X
2023-04-04T13:09:02Z,usnnjdm9,serial-reaction-time,1,R,1,1,20,4321,1,4,430.1000000014901,214,X
2023-04-04T13:09:03Z,usnnjdm9,serial-reaction-time,1,R,1,1,21,4321,1,4,359.20000000298023,144,X
2023-04-04T13:09:03Z,usnnjdm9,serial-reaction-time,1,R,1,1,22,4321,1,3,372.19999999925494,443,X
2023-04-04T13:09:04Z,usnnjdm9,serial-reaction-time,1,R,1,1,23,4321,1,4,390.69999999925494,434,X
2023-04-04T13:09:05Z,usnnjdm9,serial-reaction-time,1,R,1,1,24,4321,1,2,460.69999999925494,342,X
2023-04-04T13:09:05Z,usnnjdm9,serial-reaction-time,1,R,1,1,25,4321,1,2,399.0999999977648,422,X
2023-04-04T13:09:06Z,usnnjdm9,serial-reaction-time,1,R,1,1,26,4321,1,4,385.9000000022352,224,X
2023-04-04T13:09:06Z,usnnjdm9,serial-reaction-time,1,R,1,1,27,4321,1,4,378.69999999925494,244,X
2023-04-04T13:09:07Z,usnnjdm9,serial-reaction-time,1,R,1,1,28,4321,1,3,446.0999999977648,443,X
2023-04-04T13:09:07Z,usnnjdm9,serial-reaction-time,1,R,1,1,29,4321,1,3,415.4000000022352,433,X
2023-04-04T13:09:08Z,usnnjdm9,serial-reaction-time,1,R,1,1,30,4321,1,4,367.69999999925494,334,X
2023-04-04T13:09:08Z,usnnjdm9,serial-reaction-time,1,R,1,1,31,4321,1,4,316.3999999985099,344,X
2023-04-04T13:09:09Z,usnnjdm9,serial-reaction-time,1,R,1,1,32,4321,1,4,463.69999999925494,444,X
2023-04-04T13:09:10Z,usnnjdm9,serial-reaction-time,1,R,1,1,33,4321,1,1,516.6999999992549,441,X
2023-04-04T13:09:10Z,usnnjdm9,serial-reaction-time,1,R,1,1,34,4321,1,1,343.69999999925494,411,X
2023-04-04T13:09:11Z,usnnjdm9,serial-reaction-time,1,R,1,1,35,4321,1,4,358.6000000014901,114,X
2023-04-04T13:09:11Z,usnnjdm9,serial-reaction-time,1,R,1,1,36,4321,1,4,354.79999999701977,144,X
2023-04-04T13:09:12Z,usnnjdm9,serial-reaction-time,1,R,1,1,37,4321,1,4,371.8999999985099,444,X
2023-04-04T13:09:12Z,usnnjdm9,serial-reaction-time,1,R,1,1,38,4321,1,1,391.8999999985099,441,X
2023-04-04T13:09:13Z,usnnjdm9,serial-reaction-time,1,R,1,1,39,4321,1,4,359.4000000022352,414,X
2023-04-04T13:09:13Z,usnnjdm9,serial-reaction-time,1,R,1,1,40,4321,1,4,338.4000000022352,144,X
2023-04-04T13:09:14Z,usnnjdm9,serial-reaction-time,1,R,1,1,41,4321,1,4,404.6000000014901,444,X
2023-04-04T13:09:14Z,usnnjdm9,serial-reaction-time,1,R,1,1,42,4321,1,4,361,444,X
2023-04-04T13:09:15Z,usnnjdm9,serial-reaction-time,1,R,1,1,43,4321,1,4,320.19999999925494,444,X
2023-04-04T13:09:15Z,usnnjdm9,serial-reaction-time,1,R,1,1,44,4321,1,4,362.5999999977648,444,X
2023-04-04T13:09:16Z,usnnjdm9,serial-reaction-time,1,R,1,1,45,4321,1,3,370.69999999925494,443,X
2023-04-04T13:09:16Z,usnnjdm9,serial-reaction-time,1,R,1,1,46,4321,1,4,355.79999999701977,434,X
2023-04-04T13:09:17Z,usnnjdm9,serial-reaction-time,1,R,1,1,47,4321,1,4,370.6000000014901,344,X
2023-04-04T13:09:17Z,usnnjdm9,serial-reaction-time,1,R,1,1,48,4321,1,3,329.30000000074506,443,X
2023-04-04T13:09:18Z,usnnjdm9,serial-reaction-time,1,R,1,1,49,4321,1,1,325.6000000014901,431,X
2023-04-04T13:09:18Z,usnnjdm9,serial-reaction-time,1,R,1,1,50,4321,1,2,370.4000000022352,312,X
2023-04-04T13:09:19Z,usnnjdm9,serial-reaction-time,1,R,1,1,51,4321,1,4,339.5,124,X
2023-04-04T13:09:19Z,usnnjdm9,serial-reaction-time,1,R,1,1,52,4321,1,4,357.6000000014901,244,X
2023-04-04T13:09:20Z,usnnjdm9,serial-reaction-time,1,R,1,1,53,4321,1,3,347.19999999925494,443,X
2023-04-04T13:09:20Z,usnnjdm9,serial-reaction-time,1,R,1,1,54,4321,1,2,465.4000000022352,432,X
2023-04-04T13:09:21Z,usnnjdm9,serial-reaction-time,1,R,1,1,55,4321,1,4,339.5,324,X
2023-04-04T13:09:21Z,usnnjdm9,serial-reaction-time,1,R,1,1,56,4321,1,2,424.80000000074506,242,X
2023-04-04T13:09:22Z,usnnjdm9,serial-reaction-time,1,R,1,1,57,4321,1,2,308.20000000298023,422,X
2023-04-04T13:09:22Z,usnnjdm9,serial-reaction-time,1,R,1,1,58,4321,1,1,372.5,221,X
2023-04-04T13:09:23Z,usnnjdm9,serial-reaction-time,1,R,1,1,59,4321,1,4,349.80000000074506,214,X
2023-04-04T13:09:23Z,usnnjdm9,serial-reaction-time,1,R,1,1,60,4321,1,3,357.5,143,X
2023-04-04T13:09:24Z,usnnjdm9,serial-reaction-time,1,R,1,1,61,4321,1,1,319.6000000014901,431,X
2023-04-04T13:09:24Z,usnnjdm9,serial-reaction-time,1,R,1,1,62,4321,1,1,376.1000000014901,311,X
2023-04-04T13:09:25Z,usnnjdm9,serial-reaction-time,1,R,1,1,63,4321,1,1,383.6000000014901,111,X
2023-04-04T13:09:25Z,usnnjdm9,serial-reaction-time,1,R,1,1,64,4321,1,2,301.80000000074506,112,X
2023-04-04T13:09:26Z,usnnjdm9,serial-reaction-time,1,R,1,1,65,4321,1,4,382.0999999977648,124,X
2023-04-04T13:09:26Z,usnnjdm9,serial-reaction-time,1,R,1,1,66,4321,1,2,520.3000000007451,242,X
2023-04-04T13:09:27Z,usnnjdm9,serial-reaction-time,1,R,1,1,67,4321,1,2,381.20000000298023,422,X
2023-04-04T13:09:27Z,usnnjdm9,serial-reaction-time,NA,R,1,1,68,4321,1,3,370.80000000074506,223,X
2023-04-04T13:09:28Z,usnnjdm9,serial-reaction-time,1,R,1,0,68,4321,1,3,676.8000000007451,223,X
2023-04-04T13:09:28Z,usnnjdm9,serial-reaction-time,1,R,1,1,69,4321,1,1,446.3999999985099,231,X
2023-04-04T13:09:29Z,usnnjdm9,serial-reaction-time,1,R,1,1,70,4321,1,1,365.69999999925494,311,X
2023-04-04T13:09:29Z,usnnjdm9,serial-reaction-time,1,R,1,1,71,4321,1,2,452.3999999985099,112,X
2023-04-04T13:09:30Z,usnnjdm9,serial-reaction-time,1,R,1,1,72,4321,1,2,337.1000000014901,122,X
2023-04-04T13:09:30Z,usnnjdm9,serial-reaction-time,1,R,1,1,73,4321,1,2,326.29999999701977,222,X
2023-04-04T13:09:31Z,usnnjdm9,serial-reaction-time,1,R,1,1,74,4321,1,3,405.4000000022352,223,X
2023-04-04T13:09:31Z,usnnjdm9,serial-reaction-time,1,R,1,1,75,4321,1,1,387.19999999925494,231,X
2023-04-04T13:09:32Z,usnnjdm9,serial-reaction-time,1,R,1,1,76,4321,1,1,351.4000000022352,311,X
2023-04-04T13:09:33Z,usnnjdm9,serial-reaction-time,1,R,1,1,77,4321,1,4,447.6000000014901,114,X
2023-04-04T13:09:33Z,usnnjdm9,serial-reaction-time,1,R,1,1,78,4321,1,4,340.6000000014901,144,X
2023-04-04T13:09:34Z,usnnjdm9,serial-reaction-time,1,R,1,1,79,4321,1,4,372.8999999985099,444,X
2023-04-04T13:09:34Z,usnnjdm9,serial-reaction-time,1,R,1,1,80,4321,1,1,338.3999999985099,441,X
2023-04-04T13:09:39Z,usnnjdm9,html-keyboard-response,NA,NA,NA,NA,NA,NA,NA,NA,NA,NA,NA
2023-04-04T13:09:50Z,usnnjdm9,html-keyboard-response,NA,NA,NA,NA,NA,NA,NA,NA,NA,NA,NA
2023-04-04T13:09:52Z,usnnjdm9,serial-reaction-time,1,R,2,1,1,4321,1,1,330.30000000074506,1,X
2023-04-04T13:09:52Z,usnnjdm9,serial-reaction-time,1,R,2,1,2,4321,1,4,308.19999999925494,14,X
2023-04-04T13:09:53Z,usnnjdm9,serial-reaction-time,1,R,2,1,3,4321,1,4,269,144,X
2023-04-04T13:09:53Z,usnnjdm9,serial-reaction-time,NA,R,2,1,4,4321,1,2,286,442,X
2023-04-04T13:09:53Z,usnnjdm9,serial-reaction-time,1,R,2,0,4,4321,1,2,557.9000000022352,442,X
2023-04-04T13:09:54Z,usnnjdm9,serial-reaction-time,1,R,2,1,5,4321,1,1,329.79999999701977,421,X
2023-04-04T13:09:54Z,usnnjdm9,serial-reaction-time,1,R,2,1,6,4321,1,1,262,211,X
2023-04-04T13:09:55Z,usnnjdm9,serial-reaction-time,1,R,2,1,7,4321,1,2,391.5,112,X
2023-04-04T13:09:55Z,usnnjdm9,serial-reaction-time,1,R,2,1,8,4321,1,4,376.30000000074506,124,X
2023-04-04T13:09:56Z,usnnjdm9,serial-reaction-time,1,R,2,1,9,4321,1,3,275.20000000298023,243,X
2023-04-04T13:09:56Z,usnnjdm9,serial-reaction-time,1,R,2,1,10,4321,1,1,334.80000000074506,431,X
2023-04-04T13:09:57Z,usnnjdm9,serial-reaction-time,NA,R,2,1,11,4321,1,3,285.19999999925494,313,X
2023-04-04T13:09:57Z,usnnjdm9,serial-reaction-time,1,R,2,0,11,4321,1,3,559.5,313,X
2023-04-04T13:09:57Z,usnnjdm9,serial-reaction-time,1,R,2,1,12,4321,1,4,340,134,X
2023-04-04T13:09:58Z,usnnjdm9,serial-reaction-time,1,R,2,1,13,4321,1,4,300.3999999985099,344,X
2023-04-04T13:09:58Z,usnnjdm9,serial-reaction-time,1,R,2,1,14,4321,1,3,324.5,443,X
2023-04-04T13:09:59Z,usnnjdm9,serial-reaction-time,1,R,2,1,15,4321,1,2,282.1000000014901,432,X
2023-04-04T13:09:59Z,usnnjdm9,serial-reaction-time,1,R,2,1,16,4321,1,2,310.0999999977648,322,X
2023-04-04T13:10:00Z,usnnjdm9,serial-reaction-time,1,R,2,1,17,4321,1,1,391.5,221,X
2023-04-04T13:10:00Z,usnnjdm9,serial-reaction-time,1,R,2,1,18,4321,1,2,256.19999999925494,212,X
2023-04-04T13:10:01Z,usnnjdm9,serial-reaction-time,1,R,2,1,19,4321,1,2,270.80000000074506,122,X
2023-04-04T13:10:01Z,usnnjdm9,serial-reaction-time,1,R,2,1,20,4321,1,4,319.6000000014901,224,X
2023-04-04T13:10:01Z,usnnjdm9,serial-reaction-time,NA,R,2,1,21,4321,1,3,297.1000000014901,243,X
2023-04-04T13:10:02Z,usnnjdm9,serial-reaction-time,1,R,2,0,21,4321,1,3,542.1000000014901,243,X
2023-04-04T13:10:02Z,usnnjdm9,serial-reaction-time,1,R,2,1,22,4321,1,4,341.19999999925494,434,X
2023-04-04T13:10:03Z,usnnjdm9,serial-reaction-time,1,R,2,1,23,4321,1,1,428,341,X
2023-04-04T13:10:03Z,usnnjdm9,serial-reaction-time,1,R,2,1,24,4321,1,1,335.5,411,X
2023-04-04T13:10:04Z,usnnjdm9,serial-reaction-time,1,R,2,1,25,4321,1,3,324.5,113,X
2023-04-04T13:10:04Z,usnnjdm9,serial-reaction-time,1,R,2,1,26,4321,1,4,274.4000000022352,134,X
2023-04-04T13:10:05Z,usnnjdm9,serial-reaction-time,1,R,2,1,27,4321,1,1,403.3999999985099,341,X
2023-04-04T13:10:05Z,usnnjdm9,serial-reaction-time,1,R,2,1,28,4321,1,4,366.30000000074506,414,X
2023-04-04T13:10:06Z,usnnjdm9,serial-reaction-time,1,R,2,1,29,4321,1,3,362.3999999985099,143,X
2023-04-04T13:10:06Z,usnnjdm9,serial-reaction-time,1,R,2,1,30,4321,1,4,283.69999999925494,434,X
2023-04-04T13:10:07Z,usnnjdm9,serial-reaction-time,1,R,2,1,31,4321,1,4,401.19999999925494,344,X
2023-04-04T13:10:07Z,usnnjdm9,serial-reaction-time,1,R,2,1,32,4321,1,1,355.4000000022352,441,X
2023-04-04T13:10:08Z,usnnjdm9,serial-reaction-time,1,R,2,1,33,4321,1,1,264.5999999977648,411,X
2023-04-04T13:10:08Z,usnnjdm9,serial-reaction-time,NA,R,2,1,34,4321,1,4,336.1000000014901,114,X
2023-04-04T13:10:08Z,usnnjdm9,serial-reaction-time,1,R,2,0,34,4321,1,4,377.80000000074506,114,X
2023-04-04T13:10:09Z,usnnjdm9,serial-reaction-time,1,R,2,1,35,4321,1,3,385,143,X
2023-04-04T13:10:09Z,usnnjdm9,serial-reaction-time,1,R,2,1,36,4321,1,3,361,433,X
2023-04-04T13:10:10Z,usnnjdm9,serial-reaction-time,1,R,2,1,37,4321,1,4,309.80000000074506,334,X
2023-04-04T13:10:10Z,usnnjdm9,serial-reaction-time,1,R,2,1,38,4321,1,4,309.20000000298023,344,X
2023-04-04T13:10:11Z,usnnjdm9,serial-reaction-time,1,R,2,1,39,4321,1,2,551.0999999977648,442,X
2023-04-04T13:10:11Z,usnnjdm9,serial-reaction-time,1,R,2,1,40,4321,1,4,363.8999999985099,424,X
2023-04-04T13:10:12Z,usnnjdm9,serial-reaction-time,1,R,2,1,41,4321,1,2,573.1999999992549,242,X
2023-04-04T13:10:13Z,usnnjdm9,serial-reaction-time,1,R,2,1,42,4321,1,1,451.5999999977648,421,X
2023-04-04T13:10:13Z,usnnjdm9,serial-reaction-time,1,R,2,1,43,4321,1,1,334.9000000022352,211,X
2023-04-04T13:10:14Z,usnnjdm9,serial-reaction-time,1,R,2,1,44,4321,1,1,403.69999999925494,111,X
2023-04-04T13:10:14Z,usnnjdm9,serial-reaction-time,1,R,2,1,45,4321,1,4,330.5,114,X
2023-04-04T13:10:15Z,usnnjdm9,serial-reaction-time,1,R,2,1,46,4321,1,3,364.1000000014901,143,X
2023-04-04T13:10:15Z,usnnjdm9,serial-reaction-time,1,R,2,1,47,4321,1,4,307.69999999925494,434,X
2023-04-04T13:10:16Z,usnnjdm9,serial-reaction-time,1,R,2,1,48,4321,1,3,360,343,X
2023-04-04T13:10:16Z,usnnjdm9,serial-reaction-time,1,R,2,1,49,4321,1,3,300.3999999985099,433,X
2023-04-04T13:10:17Z,usnnjdm9,serial-reaction-time,1,R,2,1,50,4321,1,4,325.80000000074506,334,X
2023-04-04T13:10:17Z,usnnjdm9,serial-reaction-time,NA,R,2,1,51,4321,1,2,370.80000000074506,342,X
2023-04-04T13:10:17Z,usnnjdm9,serial-reaction-time,1,R,2,0,51,4321,1,2,646.8999999985099,342,X
2023-04-04T13:10:18Z,usnnjdm9,serial-reaction-time,1,R,2,1,52,4321,1,3,480.30000000074506,423,X
2023-04-04T13:10:18Z,usnnjdm9,serial-reaction-time,1,R,2,1,53,4321,1,4,322.80000000074506,234,X
2023-04-04T13:10:19Z,usnnjdm9,serial-reaction-time,1,R,2,1,54,4321,1,2,518.2000000029802,342,X
2023-04-04T13:10:20Z,usnnjdm9,serial-reaction-time,1,R,2,1,55,4321,1,4,360.3999999985099,424,X
2023-04-04T13:10:20Z,usnnjdm9,serial-reaction-time,1,R,2,1,56,4321,1,2,413,242,X
2023-04-04T13:10:21Z,usnnjdm9,serial-reaction-time,1,R,2,1,57,4321,1,2,287.5,422,X
2023-04-04T13:10:21Z,usnnjdm9,serial-reaction-time,1,R,2,1,58,4321,1,2,270.3999999985099,222,X
2023-04-04T13:10:21Z,usnnjdm9,serial-reaction-time,1,R,2,1,59,4321,1,1,350.3999999985099,221,X
2023-04-04T13:10:22Z,usnnjdm9,serial-reaction-time,1,R,2,1,60,4321,1,2,293.5,212,X
2023-04-04T13:10:22Z,usnnjdm9,serial-reaction-time,1,R,2,1,61,4321,1,4,343.79999999701977,124,X
2023-04-04T13:10:23Z,usnnjdm9,serial-reaction-time,1,R,2,1,62,4321,1,2,374.3999999985099,242,X
2023-04-04T13:10:23Z,usnnjdm9,serial-reaction-time,1,R,2,1,63,4321,1,1,357.0999999977648,421,X
2023-04-04T13:10:24Z,usnnjdm9,serial-reaction-time,1,R,2,1,64,4321,1,2,233.69999999925497,212,X
2023-04-04T13:10:24Z,usnnjdm9,serial-reaction-time,1,R,2,1,65,4321,1,1,252.59999999776483,121,X
2023-04-04T13:10:25Z,usnnjdm9,serial-reaction-time,1,R,2,1,66,4321,1,2,236.5,212,X
2023-04-04T13:10:25Z,usnnjdm9,serial-reaction-time,1,R,2,1,67,4321,1,2,294.6000000014901,122,X
2023-04-04T13:10:25Z,usnnjdm9,serial-reaction-time,1,R,2,1,68,4321,1,2,226.5,222,X
2023-04-04T13:10:26Z,usnnjdm9,serial-reaction-time,1,R,2,1,69,4321,1,3,514.5,223,X
2023-04-04T13:10:26Z,usnnjdm9,serial-reaction-time,1,R,2,1,70,4321,1,3,257,233,X
2023-04-04T13:10:27Z,usnnjdm9,serial-reaction-time,1,R,2,1,71,4321,1,3,304.19999999925494,333,X
2023-04-04T13:10:27Z,usnnjdm9,serial-reaction-time,1,R,2,1,72,4321,1,3,303.19999999925494,333,X
2023-04-04T13:10:28Z,usnnjdm9,serial-reaction-time,1,R,2,1,73,4321,1,4,342.0999999977648,334,X
2023-04-04T13:10:28Z,usnnjdm9,serial-reaction-time,1,R,2,1,74,4321,1,4,314.5999999977648,344,X
2023-04-04T13:10:29Z,usnnjdm9,serial-reaction-time,NA,R,2,1,75,4321,1,1,151,441,X
2023-04-04T13:10:29Z,usnnjdm9,serial-reaction-time,1,R,2,0,75,4321,1,1,455,441,X
2023-04-04T13:10:29Z,usnnjdm9,serial-reaction-time,NA,R,2,1,76,4321,1,4,375.5999999977648,414,X
2023-04-04T13:10:30Z,usnnjdm9,serial-reaction-time,1,R,2,0,76,4321,1,4,675.4999999962747,414,X
2023-04-04T13:10:30Z,usnnjdm9,serial-reaction-time,1,R,2,1,77,4321,1,1,375.1000000014901,141,X
2023-04-04T13:10:31Z,usnnjdm9,serial-reaction-time,NA,R,2,1,78,4321,1,2,263.29999999701977,412,X
2023-04-04T13:10:31Z,usnnjdm9,serial-reaction-time,1,R,2,0,78,4321,1,2,532.5,412,X
2023-04-04T13:10:32Z,usnnjdm9,serial-reaction-time,1,R,2,1,79,4321,1,4,373.80000000074506,124,X
2023-04-04T13:10:32Z,usnnjdm9,serial-reaction-time,1,R,2,1,80,4321,1,4,321.19999999925494,244,X
2023-04-04T13:10:37Z,usnnjdm9,html-keyboard-response,NA,NA,NA,NA,NA,NA,NA,NA,NA,NA,NA
2023-04-04T13:10:57Z,usnnjdm9,html-keyboard-response,NA,NA,NA,NA,NA,NA,NA,NA,NA,NA,NA
2023-04-04T13:10:58Z,usnnjdm9,serial-reaction-time,1,R,1,1,1,4321,0,1,358.19999999925494,1,X
2023-04-04T13:10:59Z,usnnjdm9,serial-reaction-time,1,P,1,1,2,4321,0,4,314.80000000074506,14,X
2023-04-04T13:10:59Z,usnnjdm9,serial-reaction-time,1,R,1,1,3,4321,0,1,262.6000000014901,141,T
2023-04-04T13:11:00Z,usnnjdm9,serial-reaction-time,1,P,1,1,4,4321,0,3,340.30000000074506,413,H
2023-04-04T13:11:00Z,usnnjdm9,serial-reaction-time,1,R,1,1,5,4321,0,2,313.80000000074506,132,L
2023-04-04T13:11:01Z,usnnjdm9,serial-reaction-time,1,P,1,1,6,4321,0,2,290.19999999925494,322,H
2023-04-04T13:11:01Z,usnnjdm9,serial-reaction-time,1,R,1,1,7,4321,0,2,251.40000000223517,222,R
2023-04-04T13:11:01Z,usnnjdm9,serial-reaction-time,1,P,1,1,8,4321,0,1,299.69999999925494,221,H
2023-04-04T13:11:02Z,usnnjdm9,serial-reaction-time,1,R,1,1,9,4321,0,4,341.69999999925494,214,L
2023-04-04T13:11:02Z,usnnjdm9,serial-reaction-time,1,P,1,1,10,4321,0,4,345.5,144,H
2023-04-04T13:11:03Z,usnnjdm9,serial-reaction-time,NA,R,1,1,11,4321,0,3,230.90000000223517,443,H
2023-04-04T13:11:03Z,usnnjdm9,serial-reaction-time,1,R,1,0,11,4321,0,3,456.1000000014901,443,H
2023-04-04T13:11:04Z,usnnjdm9,serial-reaction-time,1,P,1,1,12,4321,0,3,352.69999999925494,433,H
2023-04-04T13:11:04Z,usnnjdm9,serial-reaction-time,NA,R,1,1,13,4321,0,2,298.5,332,H
2023-04-04T13:11:04Z,usnnjdm9,serial-reaction-time,1,R,1,0,13,4321,0,2,560.5999999977648,332,H
2023-04-04T13:11:05Z,usnnjdm9,serial-reaction-time,1,P,1,1,14,4321,0,2,279.8999999985099,322,H
2023-04-04T13:11:05Z,usnnjdm9,serial-reaction-time,1,R,1,1,15,4321,0,3,469.29999999701977,223,L
2023-04-04T13:11:06Z,usnnjdm9,serial-reaction-time,1,P,1,1,16,4321,0,1,277.69999999925494,231,H
2023-04-04T13:11:06Z,usnnjdm9,serial-reaction-time,1,R,1,1,17,4321,0,4,402.19999999925494,314,L
2023-04-04T13:11:07Z,usnnjdm9,serial-reaction-time,1,P,1,1,18,4321,0,4,308.4000000022352,144,H
2023-04-04T13:11:07Z,usnnjdm9,serial-reaction-time,1,R,1,1,19,4321,0,1,345.0999999977648,441,L
2023-04-04T13:11:08Z,usnnjdm9,serial-reaction-time,1,P,1,1,20,4321,0,3,445.0999999977648,413,H
2023-04-04T13:11:08Z,usnnjdm9,serial-reaction-time,1,R,1,1,21,4321,0,4,303.80000000074506,134,H
2023-04-04T13:11:09Z,usnnjdm9,serial-reaction-time,1,P,1,1,22,4321,0,2,728.8999999985099,342,H
2023-04-04T13:11:10Z,usnnjdm9,serial-reaction-time,1,R,1,1,23,4321,0,1,461.80000000074506,421,L
2023-04-04T13:11:10Z,usnnjdm9,serial-reaction-time,1,P,1,1,24,4321,0,1,319.8999999985099,211,H
2023-04-04T13:11:11Z,usnnjdm9,serial-reaction-time,1,R,1,1,25,4321,0,1,270.5,111,R
2023-04-04T13:11:11Z,usnnjdm9,serial-reaction-time,NA,P,1,1,26,4321,0,4,324.19999999925494,114,H
2023-04-04T13:11:11Z,usnnjdm9,serial-reaction-time,1,P,1,0,26,4321,0,4,522,114,H
2023-04-04T13:11:12Z,usnnjdm9,serial-reaction-time,1,R,1,1,27,4321,0,4,288.1000000014901,144,H
2023-04-04T13:11:12Z,usnnjdm9,serial-reaction-time,1,P,1,1,28,4321,0,3,369.19999999925494,443,H
2023-04-04T13:11:13Z,usnnjdm9,serial-reaction-time,1,R,1,1,29,4321,0,2,469.30000000074506,432,L
2023-04-04T13:11:13Z,usnnjdm9,serial-reaction-time,1,P,1,1,30,4321,0,2,291.3999999985099,322,H
2023-04-04T13:11:14Z,usnnjdm9,serial-reaction-time,1,R,1,1,31,4321,0,3,524.5999999977648,223,L
2023-04-04T13:11:14Z,usnnjdm9,serial-reaction-time,1,P,1,1,32,4321,0,1,328.69999999925494,231,H
2023-04-04T13:11:15Z,usnnjdm9,serial-reaction-time,1,R,1,1,33,4321,0,2,419.1000000014901,312,H
2023-04-04T13:11:16Z,usnnjdm9,serial-reaction-time,1,P,1,1,34,4321,0,4,335.8999999985099,124,H
2023-04-04T13:11:16Z,usnnjdm9,serial-reaction-time,1,R,1,1,35,4321,0,1,389.5,241,H
2023-04-04T13:11:17Z,usnnjdm9,serial-reaction-time,1,P,1,1,36,4321,0,3,483.1000000014901,413,H
2023-04-04T13:11:17Z,usnnjdm9,serial-reaction-time,1,R,1,1,37,4321,0,3,365.8999999985099,133,L
2023-04-04T13:11:18Z,usnnjdm9,serial-reaction-time,NA,P,1,1,38,4321,0,2,320.5,332,H
2023-04-04T13:11:18Z,usnnjdm9,serial-reaction-time,1,P,1,0,38,4321,0,2,605.6999999992549,332,H
2023-04-04T13:11:19Z,usnnjdm9,serial-reaction-time,1,R,1,1,39,4321,0,3,468.1000000014901,323,T
2023-04-04T13:11:19Z,usnnjdm9,serial-reaction-time,1,P,1,1,40,4321,0,1,375.30000000074506,231,H
2023-04-04T13:11:20Z,usnnjdm9,serial-reaction-time,1,R,1,1,41,4321,0,4,445.8999999985099,314,L
2023-04-04T13:11:20Z,usnnjdm9,serial-reaction-time,1,P,1,1,42,4321,0,4,294.70000000298023,144,H
2023-04-04T13:11:21Z,usnnjdm9,serial-reaction-time,1,R,1,1,43,4321,0,4,269,444,R
2023-04-04T13:11:21Z,usnnjdm9,serial-reaction-time,1,P,1,1,44,4321,0,3,409,443,H
2023-04-04T13:11:22Z,usnnjdm9,serial-reaction-time,1,R,1,1,45,4321,0,3,313.30000000074506,433,H
2023-04-04T13:11:22Z,usnnjdm9,serial-reaction-time,1,P,1,1,46,4321,0,2,506.1000000014901,332,H
2023-04-04T13:11:23Z,usnnjdm9,serial-reaction-time,1,R,1,1,47,4321,0,2,278.6000000014901,322,H
2023-04-04T13:11:23Z,usnnjdm9,serial-reaction-time,1,P,1,1,48,4321,0,1,363.69999999925494,221,H
2023-04-04T13:11:24Z,usnnjdm9,serial-reaction-time,NA,R,1,1,49,4321,0,2,454.5,212,T
2023-04-04T13:11:24Z,usnnjdm9,serial-reaction-time,1,R,1,0,49,4321,0,2,460.6000000014901,212,T
2023-04-04T13:11:24Z,usnnjdm9,serial-reaction-time,1,P,1,1,50,4321,0,4,433.8999999985099,124,H
2023-04-04T13:11:25Z,usnnjdm9,serial-reaction-time,1,R,1,1,51,4321,0,4,347.5999999977648,244,L
2023-04-04T13:11:25Z,usnnjdm9,serial-reaction-time,1,P,1,1,52,4321,0,3,433.30000000074506,443,H
2023-04-04T13:11:26Z,usnnjdm9,serial-reaction-time,1,R,1,1,53,4321,0,1,397.0999999977648,431,L
2023-04-04T13:11:27Z,usnnjdm9,serial-reaction-time,1,P,1,1,54,4321,0,2,445.80000000074506,312,H
2023-04-04T13:11:27Z,usnnjdm9,serial-reaction-time,1,R,1,1,55,4321,0,2,331.9000000022352,122,L
2023-04-04T13:11:28Z,usnnjdm9,serial-reaction-time,1,P,1,1,56,4321,0,1,402,221,H
2023-04-04T13:11:28Z,usnnjdm9,serial-reaction-time,1,R,1,1,57,4321,0,4,437.29999999701977,214,L
2023-04-04T13:11:29Z,usnnjdm9,serial-reaction-time,1,P,1,1,58,4321,0,4,334.5,144,H
2023-04-04T13:11:29Z,usnnjdm9,serial-reaction-time,1,R,1,1,59,4321,0,4,336.5,444,R
2023-04-04T13:11:30Z,usnnjdm9,serial-reaction-time,1,P,1,1,60,4321,0,3,342.5,443,H
2023-04-04T13:11:30Z,usnnjdm9,serial-reaction-time,1,R,1,1,61,4321,0,4,378.69999999925494,434,T
2023-04-04T13:11:31Z,usnnjdm9,serial-reaction-time,1,P,1,1,62,4321,0,2,514.1999999992549,342,H
2023-04-04T13:11:31Z,usnnjdm9,serial-reaction-time,1,R,1,1,63,4321,0,4,385.69999999925494,424,T
2023-04-04T13:11:32Z,usnnjdm9,serial-reaction-time,NA,P,1,1,64,4321,0,1,350.1000000014901,241,H
2023-04-04T13:11:32Z,usnnjdm9,serial-reaction-time,1,P,1,0,64,4321,0,1,667.2000000029802,241,H
2023-04-04T13:11:33Z,usnnjdm9,serial-reaction-time,1,R,1,1,65,4321,0,2,406.69999999925494,412,L
2023-04-04T13:11:33Z,usnnjdm9,serial-reaction-time,1,P,1,1,66,4321,0,4,459.9000000022352,124,H
2023-04-04T13:11:34Z,usnnjdm9,serial-reaction-time,1,R,1,1,67,4321,0,3,470.8999999985099,243,L
2023-04-04T13:11:34Z,usnnjdm9,serial-reaction-time,1,P,1,1,68,4321,0,3,370.69999999925494,433,H
2023-04-04T13:11:35Z,usnnjdm9,serial-reaction-time,1,R,1,1,69,4321,0,1,355.79999999701977,331,L
2023-04-04T13:11:35Z,usnnjdm9,serial-reaction-time,1,P,1,1,70,4321,0,2,327.8999999985099,312,H
2023-04-04T13:11:36Z,usnnjdm9,serial-reaction-time,1,R,1,1,71,4321,0,3,544.6999999992549,123,L
2023-04-04T13:11:37Z,usnnjdm9,serial-reaction-time,1,P,1,1,72,4321,0,1,335.30000000074506,231,H
2023-04-04T13:11:37Z,usnnjdm9,serial-reaction-time,1,R,1,1,73,4321,0,1,419,311,L
2023-04-04T13:11:38Z,usnnjdm9,serial-reaction-time,1,P,1,1,74,4321,0,4,418.5999999977648,114,H
2023-04-04T13:11:38Z,usnnjdm9,serial-reaction-time,NA,R,1,1,75,4321,0,2,400.4000000022352,142,L
2023-04-04T13:11:39Z,usnnjdm9,serial-reaction-time,1,R,1,0,75,4321,0,2,705,142,L
2023-04-04T13:11:39Z,usnnjdm9,serial-reaction-time,1,P,1,1,76,4321,0,3,430.70000000298023,423,H
2023-04-04T13:11:40Z,usnnjdm9,serial-reaction-time,1,R,1,1,77,4321,0,4,407.5,234,L
2023-04-04T13:11:40Z,usnnjdm9,serial-reaction-time,1,P,1,1,78,4321,0,2,535.3999999985099,342,H
2023-04-04T13:11:41Z,usnnjdm9,serial-reaction-time,1,R,1,1,79,4321,0,3,364.6000000014901,423,H
2023-04-04T13:11:42Z,usnnjdm9,serial-reaction-time,1,P,1,1,80,4321,0,1,496.9000000022352,231,H
2023-04-04T13:11:47Z,usnnjdm9,html-keyboard-response,NA,NA,NA,NA,NA,NA,NA,NA,NA,NA,NA
2023-04-04T13:12:00Z,usnnjdm9,html-keyboard-response,NA,NA,NA,NA,NA,NA,NA,NA,NA,NA,NA
2023-04-04T13:12:02Z,usnnjdm9,serial-reaction-time,1,R,2,1,1,4321,0,3,400.19999999925494,3,X
2023-04-04T13:12:02Z,usnnjdm9,serial-reaction-time,NA,P,2,1,2,4321,0,4,182.69999999925497,34,X
2023-04-04T13:12:02Z,usnnjdm9,serial-reaction-time,1,P,2,0,2,4321,0,4,397.4999999962747,34,X
2023-04-04T13:12:03Z,usnnjdm9,serial-reaction-time,1,R,2,1,3,4321,0,3,321.29999999701977,343,T
2023-04-04T13:12:03Z,usnnjdm9,serial-reaction-time,1,P,2,1,4,4321,0,3,289.3999999985099,433,H
2023-04-04T13:12:04Z,usnnjdm9,serial-reaction-time,1,R,2,1,5,4321,0,4,282.80000000074506,334,L
2023-04-04T13:12:04Z,usnnjdm9,serial-reaction-time,1,P,2,1,6,4321,0,2,340,342,H
2023-04-04T13:12:05Z,usnnjdm9,serial-reaction-time,1,R,2,1,7,4321,0,2,299.6000000014901,422,L
2023-04-04T13:12:05Z,usnnjdm9,serial-reaction-time,1,P,2,1,8,4321,0,1,417.8999999985099,221,H
2023-04-04T13:12:06Z,usnnjdm9,serial-reaction-time,1,R,2,1,9,4321,0,3,320,213,L
2023-04-04T13:12:06Z,usnnjdm9,serial-reaction-time,1,P,2,1,10,4321,0,4,287.8999999985099,134,H
2023-04-04T13:12:06Z,usnnjdm9,serial-reaction-time,1,R,2,1,11,4321,0,3,260.1000000014901,343,T
2023-04-04T13:12:07Z,usnnjdm9,serial-reaction-time,1,P,2,1,12,4321,0,3,317.70000000298023,433,H
2023-04-04T13:12:07Z,usnnjdm9,serial-reaction-time,1,R,2,1,13,4321,0,3,271,333,R
2023-04-04T13:12:08Z,usnnjdm9,serial-reaction-time,1,P,2,1,14,4321,0,2,407,332,H
2023-04-04T13:12:08Z,usnnjdm9,serial-reaction-time,1,R,2,1,15,4321,0,2,278.19999999925494,322,H
2023-04-04T13:12:09Z,usnnjdm9,serial-reaction-time,1,P,2,1,16,4321,0,1,303.5999999977648,221,H
2023-04-04T13:12:09Z,usnnjdm9,serial-reaction-time,NA,R,2,1,17,4321,0,2,257.5,212,T
2023-04-04T13:12:09Z,usnnjdm9,serial-reaction-time,1,R,2,0,17,4321,0,2,473.5,212,T
2023-04-04T13:12:10Z,usnnjdm9,serial-reaction-time,1,P,2,1,18,4321,0,4,335.19999999925494,124,H
2023-04-04T13:12:10Z,usnnjdm9,serial-reaction-time,1,R,2,1,19,4321,0,3,291.6000000014901,243,L
2023-04-04T13:12:11Z,usnnjdm9,serial-reaction-time,1,P,2,1,20,4321,0,3,254.30000000074503,433,H
2023-04-04T13:12:11Z,usnnjdm9,serial-reaction-time,1,R,2,1,21,4321,0,4,319.1000000014901,334,L
2023-04-04T13:12:12Z,usnnjdm9,serial-reaction-time,NA,P,2,1,22,4321,0,2,282.79999999701977,342,H
2023-04-04T13:12:12Z,usnnjdm9,serial-reaction-time,1,P,2,0,22,4321,0,2,578.8999999985099,342,H
2023-04-04T13:12:12Z,usnnjdm9,serial-reaction-time,1,R,2,1,23,4321,0,1,340.1000000014901,421,L
2023-04-04T13:12:13Z,usnnjdm9,serial-reaction-time,1,P,2,1,24,4321,0,1,314.80000000074506,211,H
2023-04-04T13:12:13Z,usnnjdm9,serial-reaction-time,1,R,2,1,25,4321,0,3,380.70000000298023,113,L
2023-04-04T13:12:14Z,usnnjdm9,serial-reaction-time,1,P,2,1,26,4321,0,4,342.5,134,H
2023-04-04T13:12:14Z,usnnjdm9,serial-reaction-time,1,R,2,1,27,4321,0,3,316.69999999925494,343,T
2023-04-04T13:12:15Z,usnnjdm9,serial-reaction-time,1,P,2,1,28,4321,0,3,438.5,433,H
2023-04-04T13:12:15Z,usnnjdm9,serial-reaction-time,1,R,2,1,29,4321,0,3,306.8999999985099,333,R
2023-04-04T13:12:16Z,usnnjdm9,serial-reaction-time,1,P,2,1,30,4321,0,2,323,332,H
2023-04-04T13:12:16Z,usnnjdm9,serial-reaction-time,1,R,2,1,31,4321,0,1,376.4000000022352,321,L
2023-04-04T13:12:17Z,usnnjdm9,serial-reaction-time,1,P,2,1,32,4321,0,1,328.1000000014901,211,H
2023-04-04T13:12:17Z,usnnjdm9,serial-reaction-time,NA,R,2,1,33,4321,0,2,360.6000000014901,112,L
2023-04-04T13:12:18Z,usnnjdm9,serial-reaction-time,1,R,2,0,33,4321,0,2,652.2000000029802,112,L
2023-04-04T13:12:18Z,usnnjdm9,serial-reaction-time,1,P,2,1,34,4321,0,4,329.69999999925494,124,H
2023-04-04T13:12:19Z,usnnjdm9,serial-reaction-time,1,R,2,1,35,4321,0,1,375.5,241,H
2023-04-04T13:12:19Z,usnnjdm9,serial-reaction-time,NA,P,2,1,36,4321,0,3,328.80000000074506,413,H
2023-04-04T13:12:19Z,usnnjdm9,serial-reaction-time,1,P,2,0,36,4321,0,3,603.1000000014901,413,H
2023-04-04T13:12:20Z,usnnjdm9,serial-reaction-time,1,R,2,1,37,4321,0,1,387,131,T
2023-04-04T13:12:21Z,usnnjdm9,serial-reaction-time,1,P,2,1,38,4321,0,2,450.8999999985099,312,H
2023-04-04T13:12:21Z,usnnjdm9,serial-reaction-time,1,R,2,1,39,4321,0,4,372.80000000074506,124,H
2023-04-04T13:12:22Z,usnnjdm9,serial-reaction-time,1,P,2,1,40,4321,0,1,476.19999999925494,241,H
2023-04-04T13:12:22Z,usnnjdm9,serial-reaction-time,1,R,2,1,41,4321,0,4,393.5,414,T
2023-04-04T13:12:23Z,usnnjdm9,serial-reaction-time,1,P,2,1,42,4321,0,4,409.5,144,H
2023-04-04T13:12:23Z,usnnjdm9,serial-reaction-time,1,R,2,1,43,4321,0,1,328.69999999925494,441,L
2023-04-04T13:12:24Z,usnnjdm9,serial-reaction-time,1,P,2,1,44,4321,0,3,543.3000000007451,413,H
2023-04-04T13:12:25Z,usnnjdm9,serial-reaction-time,1,R,2,1,45,4321,0,4,418.3999999985099,134,H
2023-04-04T13:12:25Z,usnnjdm9,serial-reaction-time,1,P,2,1,46,4321,0,2,481.20000000298023,342,H
2023-04-04T13:12:26Z,usnnjdm9,serial-reaction-time,1,R,2,1,47,4321,0,2,274.3999999985099,422,L
2023-04-04T13:12:26Z,usnnjdm9,serial-reaction-time,1,P,2,1,48,4321,0,1,369.5,221,H
2023-04-04T13:12:27Z,usnnjdm9,serial-reaction-time,1,R,2,1,49,4321,0,3,374.30000000074506,213,L
2023-04-04T13:12:27Z,usnnjdm9,serial-reaction-time,1,P,2,1,50,4321,0,4,322.9000000022352,134,H
2023-04-04T13:12:28Z,usnnjdm9,serial-reaction-time,1,R,2,1,51,4321,0,4,303.8999999985099,344,L
2023-04-04T13:12:28Z,usnnjdm9,serial-reaction-time,1,P,2,1,52,4321,0,3,426.5,443,H
2023-04-04T13:12:29Z,usnnjdm9,serial-reaction-time,1,R,2,1,53,4321,0,1,337.4000000022352,431,L
2023-04-04T13:12:29Z,usnnjdm9,serial-reaction-time,1,P,2,1,54,4321,0,2,289.30000000074506,312,H
2023-04-04T13:12:30Z,usnnjdm9,serial-reaction-time,1,R,2,1,55,4321,0,1,371,121,T
2023-04-04T13:12:30Z,usnnjdm9,serial-reaction-time,1,P,2,1,56,4321,0,1,414.20000000298023,211,H
2023-04-04T13:12:31Z,usnnjdm9,serial-reaction-time,1,R,2,1,57,4321,0,4,354.5,114,H
2023-04-04T13:12:31Z,usnnjdm9,serial-reaction-time,1,P,2,1,58,4321,0,4,294.19999999925494,144,H
2023-04-04T13:12:32Z,usnnjdm9,serial-reaction-time,1,R,2,1,59,4321,0,3,372.6000000014901,443,H
2023-04-04T13:12:32Z,usnnjdm9,serial-reaction-time,1,P,2,1,60,4321,0,3,233.10000000149012,433,H
2023-04-04T13:12:32Z,usnnjdm9,serial-reaction-time,1,R,2,1,61,4321,0,4,341.0999999977648,334,L
2023-04-04T13:12:33Z,usnnjdm9,serial-reaction-time,NA,P,2,1,62,4321,0,2,393.0999999977648,342,H
2023-04-04T13:12:33Z,usnnjdm9,serial-reaction-time,1,P,2,0,62,4321,0,2,647.7999999970198,342,H
2023-04-04T13:12:34Z,usnnjdm9,serial-reaction-time,1,R,2,1,63,4321,0,4,367.30000000074506,424,T
2023-04-04T13:12:34Z,usnnjdm9,serial-reaction-time,1,P,2,1,64,4321,0,1,473.8999999985099,241,H
2023-04-04T13:12:35Z,usnnjdm9,serial-reaction-time,1,R,2,1,65,4321,0,1,341,411,L
2023-04-04T13:12:35Z,usnnjdm9,serial-reaction-time,1,P,2,1,66,4321,0,4,439.29999999701977,114,H
2023-04-04T13:12:36Z,usnnjdm9,serial-reaction-time,1,R,2,1,67,4321,0,1,372.69999999925494,141,T
2023-04-04T13:12:37Z,usnnjdm9,serial-reaction-time,1,P,2,1,68,4321,0,3,452.30000000074506,413,H
2023-04-04T13:12:37Z,usnnjdm9,serial-reaction-time,1,R,2,1,69,4321,0,1,330.69999999925494,131,T
2023-04-04T13:12:38Z,usnnjdm9,serial-reaction-time,1,P,2,1,70,4321,0,2,683.5,312,H
2023-04-04T13:12:38Z,usnnjdm9,serial-reaction-time,1,R,2,1,71,4321,0,3,429.5999999977648,123,L
2023-04-04T13:12:39Z,usnnjdm9,serial-reaction-time,1,P,2,1,72,4321,0,1,377.30000000074506,231,H
2023-04-04T13:12:40Z,usnnjdm9,serial-reaction-time,1,R,2,1,73,4321,0,4,489.20000000298023,314,L
2023-04-04T13:12:40Z,usnnjdm9,serial-reaction-time,1,P,2,1,74,4321,0,4,302,144,H
2023-04-04T13:12:41Z,usnnjdm9,serial-reaction-time,1,R,2,1,75,4321,0,1,311,441,L
2023-04-04T13:12:41Z,usnnjdm9,serial-reaction-time,1,P,2,1,76,4321,0,3,378.5,413,H
2023-04-04T13:12:42Z,usnnjdm9,serial-reaction-time,1,R,2,1,77,4321,0,1,388,131,T
2023-04-04T13:12:42Z,usnnjdm9,serial-reaction-time,NA,P,2,1,78,4321,0,2,289.80000000074506,312,H
2023-04-04T13:12:42Z,usnnjdm9,serial-reaction-time,1,P,2,0,78,4321,0,2,579.6000000014901,312,H
2023-04-04T13:12:43Z,usnnjdm9,serial-reaction-time,1,R,2,1,79,4321,0,4,365.30000000074506,124,H
2023-04-04T13:12:43Z,usnnjdm9,serial-reaction-time,1,P,2,1,80,4321,0,1,312.6000000014901,241,H
2023-04-04T13:12:48Z,usnnjdm9,html-keyboard-response,NA,NA,NA,NA,NA,NA,NA,NA,NA,NA,NA
2023-04-04T13:12:58Z,usnnjdm9,html-keyboard-response,NA,NA,NA,NA,NA,NA,NA,NA,NA,NA,NA
2023-04-04T13:12:59Z,usnnjdm9,serial-reaction-time,1,R,3,1,1,4321,0,1,363.69999999925494,1,X
2023-04-04T13:13:00Z,usnnjdm9,serial-reaction-time,NA,P,3,1,2,4321,0,4,169.60000000149012,14,X
2023-04-04T13:13:00Z,usnnjdm9,serial-reaction-time,1,P,3,0,2,4321,0,4,428.30000000074506,14,X
2023-04-04T13:13:00Z,usnnjdm9,serial-reaction-time,NA,R,3,1,3,4321,0,2,286,142,L
2023-04-04T13:13:01Z,usnnjdm9,serial-reaction-time,1,R,3,0,3,4321,0,2,574.5,142,L
2023-04-04T13:13:02Z,usnnjdm9,serial-reaction-time,1,P,3,1,4,4321,0,3,809,423,H
2023-04-04T13:13:02Z,usnnjdm9,serial-reaction-time,1,R,3,1,5,4321,0,2,703.5999999977648,232,T
2023-04-04T13:13:03Z,usnnjdm9,serial-reaction-time,1,P,3,1,6,4321,0,2,359.5999999977648,322,H
2023-04-04T13:13:03Z,usnnjdm9,serial-reaction-time,1,R,3,1,7,4321,0,2,265.5,222,R
2023-04-04T13:13:04Z,usnnjdm9,serial-reaction-time,1,P,3,1,8,4321,0,1,341.1000000014901,221,H
2023-04-04T13:13:04Z,usnnjdm9,serial-reaction-time,1,R,3,1,9,4321,0,1,389,211,H
2023-04-04T13:13:05Z,usnnjdm9,serial-reaction-time,1,P,3,1,10,4321,0,4,374.30000000074506,114,H
2023-04-04T13:13:05Z,usnnjdm9,serial-reaction-time,1,R,3,1,11,4321,0,1,428.30000000074506,141,T
2023-04-04T13:13:06Z,usnnjdm9,serial-reaction-time,1,P,3,1,12,4321,0,3,488.6000000014901,413,H
2023-04-04T13:13:06Z,usnnjdm9,serial-reaction-time,1,R,3,1,13,4321,0,3,294.8999999985099,133,L
2023-04-04T13:13:07Z,usnnjdm9,serial-reaction-time,NA,P,3,1,14,4321,0,2,320.5,332,H
2023-04-04T13:13:07Z,usnnjdm9,serial-reaction-time,1,P,3,0,14,4321,0,2,542.3999999985099,332,H
2023-04-04T13:13:08Z,usnnjdm9,serial-reaction-time,1,R,3,1,15,4321,0,1,343.80000000074506,321,L
2023-04-04T13:13:08Z,usnnjdm9,serial-reaction-time,1,P,3,1,16,4321,0,1,321.4000000022352,211,H
2023-04-04T13:13:09Z,usnnjdm9,serial-reaction-time,1,R,3,1,17,4321,0,3,452.19999999925494,113,L
2023-04-04T13:13:09Z,usnnjdm9,serial-reaction-time,NA,P,3,1,18,4321,0,4,57.60000000149011,134,H
2023-04-04T13:13:09Z,usnnjdm9,serial-reaction-time,1,P,3,0,18,4321,0,4,374.70000000298023,134,H
2023-04-04T13:13:10Z,usnnjdm9,serial-reaction-time,1,R,3,1,19,4321,0,3,402.5,343,T
2023-04-04T13:13:10Z,usnnjdm9,serial-reaction-time,1,P,3,1,20,4321,0,3,322.6000000014901,433,H
2023-04-04T13:13:11Z,usnnjdm9,serial-reaction-time,1,R,3,1,21,4321,0,4,357.80000000074506,334,L
2023-04-04T13:13:11Z,usnnjdm9,serial-reaction-time,1,P,3,1,22,4321,0,2,388,342,H
2023-04-04T13:13:12Z,usnnjdm9,serial-reaction-time,1,R,3,1,23,4321,0,1,333,421,L
2023-04-04T13:13:12Z,usnnjdm9,serial-reaction-time,NA,P,3,1,24,4321,0,1,229.60000000149012,211,H
2023-04-04T13:13:12Z,usnnjdm9,serial-reaction-time,1,P,3,0,24,4321,0,1,256.8999999985099,211,H
2023-04-04T13:13:13Z,usnnjdm9,serial-reaction-time,1,R,3,1,25,4321,0,4,392.3999999985099,114,H
2023-04-04T13:13:13Z,usnnjdm9,serial-reaction-time,1,P,3,1,26,4321,0,4,358.69999999925494,144,H
2023-04-04T13:13:14Z,usnnjdm9,serial-reaction-time,1,R,3,1,27,4321,0,4,275.19999999925494,444,R
2023-04-04T13:13:14Z,usnnjdm9,serial-reaction-time,1,P,3,1,28,4321,0,3,254.39999999850988,443,H
2023-04-04T13:13:15Z,usnnjdm9,serial-reaction-time,1,R,3,1,29,4321,0,4,334.8999999985099,434,T
2023-04-04T13:13:15Z,usnnjdm9,serial-reaction-time,NA,P,3,1,30,4321,0,2,252.60000000149012,342,H
2023-04-04T13:13:15Z,usnnjdm9,serial-reaction-time,1,P,3,0,30,4321,0,2,533.2000000029802,342,H
2023-04-04T13:13:16Z,usnnjdm9,serial-reaction-time,1,R,3,1,31,4321,0,1,369.30000000074506,421,L
2023-04-04T13:13:16Z,usnnjdm9,serial-reaction-time,1,P,3,1,32,4321,0,1,324.5,211,H
2023-04-04T13:13:17Z,usnnjdm9,serial-reaction-time,1,R,3,1,33,4321,0,3,336.8999999985099,113,L
2023-04-04T13:13:17Z,usnnjdm9,serial-reaction-time,1,P,3,1,34,4321,0,4,316.6000000014901,134,H
2023-04-04T13:13:18Z,usnnjdm9,serial-reaction-time,1,R,3,1,35,4321,0,1,380.5,341,L
2023-04-04T13:13:18Z,usnnjdm9,serial-reaction-time,1,P,3,1,36,4321,0,3,432.5,413,H
2023-04-04T13:13:19Z,usnnjdm9,serial-reaction-time,1,R,3,1,37,4321,0,1,317.3999999985099,131,T
2023-04-04T13:13:20Z,usnnjdm9,serial-reaction-time,1,P,3,1,38,4321,0,2,580,312,H
2023-04-04T13:13:20Z,usnnjdm9,serial-reaction-time,1,R,3,1,39,4321,0,2,363,122,L
2023-04-04T13:13:21Z,usnnjdm9,serial-reaction-time,1,P,3,1,40,4321,0,1,333.5,221,H
2023-04-04T13:13:21Z,usnnjdm9,serial-reaction-time,1,R,3,1,41,4321,0,4,332.5,214,L
2023-04-04T13:13:22Z,usnnjdm9,serial-reaction-time,1,P,3,1,42,4321,0,4,390.6000000014901,144,H
2023-04-04T13:13:22Z,usnnjdm9,serial-reaction-time,1,R,3,1,43,4321,0,4,285.30000000074506,444,R
2023-04-04T13:13:22Z,usnnjdm9,serial-reaction-time,NA,P,3,1,44,4321,0,3,326.20000000298023,443,H
2023-04-04T13:13:23Z,usnnjdm9,serial-reaction-time,1,P,3,0,44,4321,0,3,548.8000000044703,443,H
2023-04-04T13:13:23Z,usnnjdm9,serial-reaction-time,1,R,3,1,45,4321,0,4,339.6000000014901,434,T
2023-04-04T13:13:24Z,usnnjdm9,serial-reaction-time,1,P,3,1,46,4321,0,2,646.5,342,H
2023-04-04T13:13:24Z,usnnjdm9,serial-reaction-time,NA,R,3,1,47,4321,0,3,343.19999999925494,423,H
2023-04-04T13:13:25Z,usnnjdm9,serial-reaction-time,1,R,3,0,47,4321,0,3,597.5999999977648,423,H
2023-04-04T13:13:25Z,usnnjdm9,serial-reaction-time,1,P,3,1,48,4321,0,1,395.1000000014901,231,H
2023-04-04T13:13:26Z,usnnjdm9,serial-reaction-time,1,R,3,1,49,4321,0,4,443.5,314,L
2023-04-04T13:13:26Z,usnnjdm9,serial-reaction-time,1,P,3,1,50,4321,0,4,331.19999999925494,144,H
2023-04-04T13:13:27Z,usnnjdm9,serial-reaction-time,1,R,3,1,51,4321,0,4,272.19999999925494,444,R
2023-04-04T13:13:27Z,usnnjdm9,serial-reaction-time,1,P,3,1,52,4321,0,3,386,443,H
2023-04-04T13:13:28Z,usnnjdm9,serial-reaction-time,1,R,3,1,53,4321,0,3,348.6000000014901,433,H
2023-04-04T13:13:28Z,usnnjdm9,serial-reaction-time,1,P,3,1,54,4321,0,2,494.0999999977648,332,H
2023-04-04T13:13:29Z,usnnjdm9,serial-reaction-time,1,R,3,1,55,4321,0,4,311.79999999701977,324,L
2023-04-04T13:13:29Z,usnnjdm9,serial-reaction-time,1,P,3,1,56,4321,0,1,440,241,H
2023-04-04T13:13:30Z,usnnjdm9,serial-reaction-time,1,R,3,1,57,4321,0,1,370.19999999925494,411,L
2023-04-04T13:13:31Z,usnnjdm9,serial-reaction-time,1,P,3,1,58,4321,0,4,358.69999999925494,114,H
2023-04-04T13:13:31Z,usnnjdm9,serial-reaction-time,1,R,3,1,59,4321,0,1,422,141,T
2023-04-04T13:13:32Z,usnnjdm9,serial-reaction-time,1,P,3,1,60,4321,0,3,429.80000000074506,413,H
2023-04-04T13:13:32Z,usnnjdm9,serial-reaction-time,1,R,3,1,61,4321,0,1,345.5999999977648,131,T
2023-04-04T13:13:33Z,usnnjdm9,serial-reaction-time,1,P,3,1,62,4321,0,2,583.1999999992549,312,H
2023-04-04T13:13:33Z,usnnjdm9,serial-reaction-time,1,R,3,1,63,4321,0,4,317,124,H
2023-04-04T13:13:34Z,usnnjdm9,serial-reaction-time,1,P,3,1,64,4321,0,1,467,241,H
2023-04-04T13:13:34Z,usnnjdm9,serial-reaction-time,1,R,3,1,65,4321,0,2,298.69999999925494,412,L
2023-04-04T13:13:35Z,usnnjdm9,serial-reaction-time,1,P,3,1,66,4321,0,4,488.29999999701977,124,H
2023-04-04T13:13:35Z,usnnjdm9,serial-reaction-time,NA,R,3,1,67,4321,0,2,249.30000000074503,242,T
2023-04-04T13:13:36Z,usnnjdm9,serial-reaction-time,1,R,3,0,67,4321,0,2,485.30000000074506,242,T
2023-04-04T13:13:36Z,usnnjdm9,serial-reaction-time,1,P,3,1,68,4321,0,3,425.5,423,H
2023-04-04T13:13:37Z,usnnjdm9,serial-reaction-time,1,R,3,1,69,4321,0,2,391.9000000022352,232,T
2023-04-04T13:13:37Z,usnnjdm9,serial-reaction-time,1,P,3,1,70,4321,0,2,351.30000000074506,322,H
2023-04-04T13:13:38Z,usnnjdm9,serial-reaction-time,1,R,3,1,71,4321,0,4,307.0999999977648,224,L
2023-04-04T13:13:38Z,usnnjdm9,serial-reaction-time,1,P,3,1,72,4321,0,1,290.19999999925494,241,H
2023-04-04T13:13:39Z,usnnjdm9,serial-reaction-time,1,R,3,1,73,4321,0,3,492.70000000298023,413,H
2023-04-04T13:13:39Z,usnnjdm9,serial-reaction-time,1,P,3,1,74,4321,0,4,347.80000000074506,134,H
2023-04-04T13:13:40Z,usnnjdm9,serial-reaction-time,1,R,3,1,75,4321,0,2,496.20000000298023,342,H
2023-04-04T13:13:40Z,usnnjdm9,serial-reaction-time,NA,P,3,1,76,4321,0,3,291.6000000014901,423,H
2023-04-04T13:13:41Z,usnnjdm9,serial-reaction-time,1,P,3,0,76,4321,0,3,527.7000000029802,423,H
2023-04-04T13:13:41Z,usnnjdm9,serial-reaction-time,1,R,3,1,77,4321,0,3,343.8999999985099,233,L
2023-04-04T13:13:42Z,usnnjdm9,serial-reaction-time,1,P,3,1,78,4321,0,2,421.5,332,H
2023-04-04T13:13:42Z,usnnjdm9,serial-reaction-time,1,R,3,1,79,4321,0,4,459.6000000014901,324,L
2023-04-04T13:13:43Z,usnnjdm9,serial-reaction-time,1,P,3,1,80,4321,0,1,381.30000000074506,241,H
2023-04-04T13:13:48Z,usnnjdm9,html-keyboard-response,NA,NA,NA,NA,NA,NA,NA,NA,NA,NA,NA
2023-04-04T13:14:08Z,usnnjdm9,html-keyboard-response,NA,NA,NA,NA,NA,NA,NA,NA,NA,NA,NA
2023-04-04T13:14:09Z,usnnjdm9,serial-reaction-time,1,R,4,1,1,4321,0,1,301.6000000014901,1,X
2023-04-04T13:14:10Z,usnnjdm9,serial-reaction-time,1,P,4,1,2,4321,0,4,252.40000000223517,14,X
2023-04-04T13:14:10Z,usnnjdm9,serial-reaction-time,1,R,4,1,3,4321,0,3,428.4000000022352,143,L
2023-04-04T13:14:11Z,usnnjdm9,serial-reaction-time,1,P,4,1,4,4321,0,3,322.69999999925494,433,H
2023-04-04T13:14:11Z,usnnjdm9,serial-reaction-time,1,R,4,1,5,4321,0,4,288.19999999925494,334,L
2023-04-04T13:14:12Z,usnnjdm9,serial-reaction-time,1,P,4,1,6,4321,0,2,332.69999999925494,342,H
2023-04-04T13:14:12Z,usnnjdm9,serial-reaction-time,1,R,4,1,7,4321,0,2,293.3999999985099,422,L
2023-04-04T13:14:13Z,usnnjdm9,serial-reaction-time,NA,P,4,1,8,4321,0,1,249.19999999925497,221,H
2023-04-04T13:14:13Z,usnnjdm9,serial-reaction-time,1,P,4,0,8,4321,0,1,454.19999999925494,221,H
2023-04-04T13:14:13Z,usnnjdm9,serial-reaction-time,1,R,4,1,9,4321,0,1,312.19999999925494,211,H
2023-04-04T13:14:14Z,usnnjdm9,serial-reaction-time,1,P,4,1,10,4321,0,4,307.19999999925494,114,H
2023-04-04T13:14:14Z,usnnjdm9,serial-reaction-time,NA,R,4,1,11,4321,0,2,314.0999999977648,142,L
2023-04-04T13:14:15Z,usnnjdm9,serial-reaction-time,1,R,4,0,11,4321,0,2,598.5999999977648,142,L
2023-04-04T13:14:15Z,usnnjdm9,serial-reaction-time,1,P,4,1,12,4321,0,3,352.30000000074506,423,H
2023-04-04T13:14:16Z,usnnjdm9,serial-reaction-time,1,R,4,1,13,4321,0,2,496.80000000074506,232,T
2023-04-04T13:14:16Z,usnnjdm9,serial-reaction-time,1,P,4,1,14,4321,0,2,306.69999999925494,322,H
2023-04-04T13:14:17Z,usnnjdm9,serial-reaction-time,1,R,4,1,15,4321,0,1,376.1000000014901,221,H
2023-04-04T13:14:17Z,usnnjdm9,serial-reaction-time,1,P,4,1,16,4321,0,1,272.30000000074506,211,H
2023-04-04T13:14:18Z,usnnjdm9,serial-reaction-time,1,R,4,1,17,4321,0,2,385.70000000298023,112,L
2023-04-04T13:14:18Z,usnnjdm9,serial-reaction-time,1,P,4,1,18,4321,0,4,334.9000000022352,124,H
2023-04-04T13:14:19Z,usnnjdm9,serial-reaction-time,1,R,4,1,19,4321,0,3,339.5999999977648,243,L
2023-04-04T13:14:19Z,usnnjdm9,serial-reaction-time,1,P,4,1,20,4321,0,3,294.5999999977648,433,H
2023-04-04T13:14:19Z,usnnjdm9,serial-reaction-time,1,R,4,1,21,4321,0,3,314.19999999925494,333,R
2023-04-04T13:14:20Z,usnnjdm9,serial-reaction-time,1,P,4,1,22,4321,0,2,319.5999999977648,332,H
2023-04-04T13:14:20Z,usnnjdm9,serial-reaction-time,1,R,4,1,23,4321,0,2,275,322,H
2023-04-04T13:14:21Z,usnnjdm9,serial-reaction-time,NA,P,4,1,24,4321,0,1,205.60000000149012,221,H
2023-04-04T13:14:21Z,usnnjdm9,serial-reaction-time,1,P,4,0,24,4321,0,1,479.19999999925494,221,H
2023-04-04T13:14:21Z,usnnjdm9,serial-reaction-time,1,R,4,1,25,4321,0,1,267.80000000074506,211,H
2023-04-04T13:14:22Z,usnnjdm9,serial-reaction-time,1,P,4,1,26,4321,0,4,340.29999999701977,114,H
2023-04-04T13:14:22Z,usnnjdm9,serial-reaction-time,1,R,4,1,27,4321,0,4,309.3999999985099,144,H
2023-04-04T13:14:23Z,usnnjdm9,serial-reaction-time,1,P,4,1,28,4321,0,3,398,443,H
2023-04-04T13:14:23Z,usnnjdm9,serial-reaction-time,1,R,4,1,29,4321,0,3,290.80000000074506,433,H
2023-04-04T13:14:24Z,usnnjdm9,serial-reaction-time,1,P,4,1,30,4321,0,2,323.6000000014901,332,H
2023-04-04T13:14:24Z,usnnjdm9,serial-reaction-time,1,R,4,1,31,4321,0,1,382.6000000014901,321,L
2023-04-04T13:14:25Z,usnnjdm9,serial-reaction-time,1,P,4,1,32,4321,0,1,372.5,211,H
2023-04-04T13:14:25Z,usnnjdm9,serial-reaction-time,1,R,4,1,33,4321,0,1,313.5999999977648,111,R
2023-04-04T13:14:26Z,usnnjdm9,serial-reaction-time,1,P,4,1,34,4321,0,4,345.6000000014901,114,H
2023-04-04T13:14:26Z,usnnjdm9,serial-reaction-time,1,R,4,1,35,4321,0,4,302.5999999977648,144,H
2023-04-04T13:14:27Z,usnnjdm9,serial-reaction-time,1,P,4,1,36,4321,0,3,358.19999999925494,443,H
2023-04-04T13:14:27Z,usnnjdm9,serial-reaction-time,1,R,4,1,37,4321,0,4,338.5,434,T
2023-04-04T13:14:28Z,usnnjdm9,serial-reaction-time,1,P,4,1,38,4321,0,2,460.5,342,H
2023-04-04T13:14:28Z,usnnjdm9,serial-reaction-time,NA,R,4,1,39,4321,0,1,292.5,421,L
2023-04-04T13:14:29Z,usnnjdm9,serial-reaction-time,1,R,4,0,39,4321,0,1,517.9000000022352,421,L
2023-04-04T13:14:29Z,usnnjdm9,serial-reaction-time,1,P,4,1,40,4321,0,1,361.1000000014901,211,H
2023-04-04T13:14:30Z,usnnjdm9,serial-reaction-time,1,R,4,1,41,4321,0,3,494,113,L
2023-04-04T13:14:30Z,usnnjdm9,serial-reaction-time,1,P,4,1,42,4321,0,4,310.80000000074506,134,H
2023-04-04T13:14:31Z,usnnjdm9,serial-reaction-time,1,R,4,1,43,4321,0,3,422.0999999977648,343,T
2023-04-04T13:14:31Z,usnnjdm9,serial-reaction-time,1,P,4,1,44,4321,0,3,368.69999999925494,433,H
2023-04-04T13:14:32Z,usnnjdm9,serial-reaction-time,1,R,4,1,45,4321,0,2,476.4000000022352,332,H
2023-04-04T13:14:32Z,usnnjdm9,serial-reaction-time,1,P,4,1,46,4321,0,2,309.79999999701977,322,H
2023-04-04T13:14:33Z,usnnjdm9,serial-reaction-time,NA,R,4,1,47,4321,0,3,382.1000000014901,223,L
2023-04-04T13:14:33Z,usnnjdm9,serial-reaction-time,1,R,4,0,47,4321,0,3,671.1999999992549,223,L
2023-04-04T13:14:34Z,usnnjdm9,serial-reaction-time,1,P,4,1,48,4321,0,1,417.8999999985099,231,H
2023-04-04T13:14:34Z,usnnjdm9,serial-reaction-time,1,R,4,1,49,4321,0,2,440.8999999985099,312,H
2023-04-04T13:14:35Z,usnnjdm9,serial-reaction-time,1,P,4,1,50,4321,0,4,397,124,H
2023-04-04T13:14:35Z,usnnjdm9,serial-reaction-time,1,R,4,1,51,4321,0,1,368.8999999985099,241,H
2023-04-04T13:14:36Z,usnnjdm9,serial-reaction-time,1,P,4,1,52,4321,0,3,495.19999999925494,413,H
2023-04-04T13:14:37Z,usnnjdm9,serial-reaction-time,1,R,4,1,53,4321,0,3,347.1000000014901,133,L
2023-04-04T13:14:37Z,usnnjdm9,serial-reaction-time,1,P,4,1,54,4321,0,2,524.8000000007451,332,H
2023-04-04T13:14:38Z,usnnjdm9,serial-reaction-time,1,R,4,1,55,4321,0,2,295.6000000014901,322,H
2023-04-04T13:14:38Z,usnnjdm9,serial-reaction-time,1,P,4,1,56,4321,0,1,396.3999999985099,221,H
2023-04-04T13:14:39Z,usnnjdm9,serial-reaction-time,1,R,4,1,57,4321,0,1,360.70000000298023,211,H
2023-04-04T13:14:39Z,usnnjdm9,serial-reaction-time,1,P,4,1,58,4321,0,4,360.4000000022352,114,H
2023-04-04T13:14:40Z,usnnjdm9,serial-reaction-time,1,R,4,1,59,4321,0,3,371.80000000074506,143,L
2023-04-04T13:14:40Z,usnnjdm9,serial-reaction-time,1,P,4,1,60,4321,0,3,316.0999999977648,433,H
2023-04-04T13:14:41Z,usnnjdm9,serial-reaction-time,1,R,4,1,61,4321,0,4,358.19999999925494,334,L
2023-04-04T13:14:41Z,usnnjdm9,serial-reaction-time,1,P,4,1,62,4321,0,2,506.80000000074506,342,H
2023-04-04T13:14:42Z,usnnjdm9,serial-reaction-time,1,R,4,1,63,4321,0,4,352.4000000022352,424,T
2023-04-04T13:14:42Z,usnnjdm9,serial-reaction-time,1,P,4,1,64,4321,0,1,441.6000000014901,241,H
2023-04-04T13:14:43Z,usnnjdm9,serial-reaction-time,1,R,4,1,65,4321,0,1,287.29999999701977,411,L
2023-04-04T13:14:43Z,usnnjdm9,serial-reaction-time,1,P,4,1,66,4321,0,4,324.5999999977648,114,H
2023-04-04T13:14:44Z,usnnjdm9,serial-reaction-time,NA,R,4,1,67,4321,0,2,404.5,142,L
2023-04-04T13:14:44Z,usnnjdm9,serial-reaction-time,1,R,4,0,67,4321,0,2,760.9000000022352,142,L
2023-04-04T13:14:45Z,usnnjdm9,serial-reaction-time,1,P,4,1,68,4321,0,3,517.7999999970198,423,H
2023-04-04T13:14:45Z,usnnjdm9,serial-reaction-time,1,R,4,1,69,4321,0,4,345.19999999925494,234,L
2023-04-04T13:14:46Z,usnnjdm9,serial-reaction-time,NA,P,4,1,70,4321,0,2,338.6000000014901,342,H
2023-04-04T13:14:46Z,usnnjdm9,serial-reaction-time,1,P,4,0,70,4321,0,2,575.9000000022352,342,H
2023-04-04T13:14:47Z,usnnjdm9,serial-reaction-time,1,R,4,1,71,4321,0,3,443,423,H
2023-04-04T13:14:47Z,usnnjdm9,serial-reaction-time,1,P,4,1,72,4321,0,1,481.69999999925494,231,H
2023-04-04T13:14:48Z,usnnjdm9,serial-reaction-time,1,R,4,1,73,4321,0,4,427.69999999925494,314,L
2023-04-04T13:14:48Z,usnnjdm9,serial-reaction-time,1,P,4,1,74,4321,0,4,332.9000000022352,144,H
2023-04-04T13:14:49Z,usnnjdm9,serial-reaction-time,1,R,4,1,75,4321,0,3,439,443,H
2023-04-04T13:14:50Z,usnnjdm9,serial-reaction-time,1,P,4,1,76,4321,0,3,393,433,H
2023-04-04T13:14:50Z,usnnjdm9,serial-reaction-time,1,R,4,1,77,4321,0,4,345.3999999985099,334,L
2023-04-04T13:14:51Z,usnnjdm9,serial-reaction-time,1,P,4,1,78,4321,0,2,565.1000000014901,342,H
2023-04-04T13:14:51Z,usnnjdm9,serial-reaction-time,NA,R,4,1,79,4321,0,3,353.19999999925494,423,H
2023-04-04T13:14:52Z,usnnjdm9,serial-reaction-time,1,R,4,0,79,4321,0,3,647.6999999992549,423,H
2023-04-04T13:14:53Z,usnnjdm9,serial-reaction-time,1,P,4,1,80,4321,0,1,865.8000000007451,231,H
2023-04-04T13:14:58Z,usnnjdm9,html-keyboard-response,NA,NA,NA,NA,NA,NA,NA,NA,NA,NA,NA
2023-04-04T13:15:31Z,usnnjdm9,html-keyboard-response,NA,NA,NA,NA,NA,NA,NA,NA,NA,NA,NA
2023-04-04T13:15:32Z,usnnjdm9,serial-reaction-time,NA,R,5,1,1,4321,0,2,383.19999999925494,2,X
2023-04-04T13:15:33Z,usnnjdm9,serial-reaction-time,1,R,5,0,1,4321,0,2,652.2999999970198,2,X
2023-04-04T13:15:33Z,usnnjdm9,serial-reaction-time,1,P,5,1,2,4321,0,4,344.6000000014901,24,X
2023-04-04T13:15:34Z,usnnjdm9,serial-reaction-time,1,R,5,1,3,4321,0,2,319.30000000074506,242,T
2023-04-04T13:15:34Z,usnnjdm9,serial-reaction-time,1,P,5,1,4,4321,0,3,376.8999999985099,423,H
2023-04-04T13:15:35Z,usnnjdm9,serial-reaction-time,1,R,5,1,5,4321,0,3,291.20000000298023,233,L
2023-04-04T13:15:35Z,usnnjdm9,serial-reaction-time,1,P,5,1,6,4321,0,2,298.19999999925494,332,H
2023-04-04T13:15:36Z,usnnjdm9,serial-reaction-time,1,R,5,1,7,4321,0,2,283.5999999977648,322,H
2023-04-04T13:15:36Z,usnnjdm9,serial-reaction-time,1,P,5,1,8,4321,0,1,367.9000000022352,221,H
2023-04-04T13:15:37Z,usnnjdm9,serial-reaction-time,1,R,5,1,9,4321,0,4,367.4000000022352,214,L
2023-04-04T13:15:37Z,usnnjdm9,serial-reaction-time,1,P,5,1,10,4321,0,4,303.80000000074506,144,H
2023-04-04T13:15:38Z,usnnjdm9,serial-reaction-time,1,R,5,1,11,4321,0,2,351.29999999701977,442,L
2023-04-04T13:15:38Z,usnnjdm9,serial-reaction-time,1,P,5,1,12,4321,0,3,380.9000000022352,423,H
2023-04-04T13:15:39Z,usnnjdm9,serial-reaction-time,1,R,5,1,13,4321,0,3,346.79999999701977,233,L
2023-04-04T13:15:39Z,usnnjdm9,serial-reaction-time,1,P,5,1,14,4321,0,2,298.69999999925494,332,H
2023-04-04T13:15:40Z,usnnjdm9,serial-reaction-time,1,R,5,1,15,4321,0,1,372.6000000014901,321,L
2023-04-04T13:15:40Z,usnnjdm9,serial-reaction-time,1,P,5,1,16,4321,0,1,319.80000000074506,211,H
2023-04-04T13:15:40Z,usnnjdm9,serial-reaction-time,1,R,5,1,17,4321,0,1,291.6000000014901,111,R
2023-04-04T13:15:41Z,usnnjdm9,serial-reaction-time,1,P,5,1,18,4321,0,4,324.1000000014901,114,H
2023-04-04T13:15:41Z,usnnjdm9,serial-reaction-time,1,R,5,1,19,4321,0,2,367.5,142,L
2023-04-04T13:15:42Z,usnnjdm9,serial-reaction-time,1,P,5,1,20,4321,0,3,296.5999999977648,423,H
2023-04-04T13:15:42Z,usnnjdm9,serial-reaction-time,1,R,5,1,21,4321,0,2,284.80000000074506,232,T
2023-04-04T13:15:43Z,usnnjdm9,serial-reaction-time,1,P,5,1,22,4321,0,2,308.5999999977648,322,H
2023-04-04T13:15:43Z,usnnjdm9,serial-reaction-time,1,R,5,1,23,4321,0,2,306.80000000074506,222,R
2023-04-04T13:15:44Z,usnnjdm9,serial-reaction-time,1,P,5,1,24,4321,0,1,297.1000000014901,221,H
2023-04-04T13:15:44Z,usnnjdm9,serial-reaction-time,NA,R,5,1,25,4321,0,3,282.5,213,L
2023-04-04T13:15:44Z,usnnjdm9,serial-reaction-time,1,R,5,0,25,4321,0,3,559.5,213,L
2023-04-04T13:15:45Z,usnnjdm9,serial-reaction-time,1,P,5,1,26,4321,0,4,376.3999999985099,134,H
2023-04-04T13:15:45Z,usnnjdm9,serial-reaction-time,1,R,5,1,27,4321,0,2,320.30000000074506,342,H
2023-04-04T13:15:46Z,usnnjdm9,serial-reaction-time,1,P,5,1,28,4321,0,3,316.6000000014901,423,H
2023-04-04T13:15:46Z,usnnjdm9,serial-reaction-time,NA,R,5,1,29,4321,0,1,297.69999999925494,231,H
2023-04-04T13:15:46Z,usnnjdm9,serial-reaction-time,1,R,5,0,29,4321,0,1,475.80000000074506,231,H
2023-04-04T13:15:47Z,usnnjdm9,serial-reaction-time,1,P,5,1,30,4321,0,2,382.3999999985099,312,H
2023-04-04T13:15:48Z,usnnjdm9,serial-reaction-time,1,R,5,1,31,4321,0,3,384.4000000022352,123,L
2023-04-04T13:15:48Z,usnnjdm9,serial-reaction-time,1,P,5,1,32,4321,0,1,336.69999999925494,231,H
2023-04-04T13:15:49Z,usnnjdm9,serial-reaction-time,NA,R,5,1,33,4321,0,4,357.19999999925494,314,L
2023-04-04T13:15:49Z,usnnjdm9,serial-reaction-time,1,R,5,0,33,4321,0,4,528.0999999977648,314,L
2023-04-04T13:15:49Z,usnnjdm9,serial-reaction-time,1,P,5,1,34,4321,0,4,276.1000000014901,144,H
2023-04-04T13:15:50Z,usnnjdm9,serial-reaction-time,1,R,5,1,35,4321,0,4,294.6000000014901,444,R
2023-04-04T13:15:50Z,usnnjdm9,serial-reaction-time,1,P,5,1,36,4321,0,3,402.30000000074506,443,H
2023-04-04T13:15:51Z,usnnjdm9,serial-reaction-time,1,R,5,1,37,4321,0,2,292.19999999925494,432,L
2023-04-04T13:15:51Z,usnnjdm9,serial-reaction-time,1,P,5,1,38,4321,0,2,325.80000000074506,322,H
2023-04-04T13:15:52Z,usnnjdm9,serial-reaction-time,1,R,5,1,39,4321,0,1,333,221,H
2023-04-04T13:15:52Z,usnnjdm9,serial-reaction-time,1,P,5,1,40,4321,0,1,307,211,H
2023-04-04T13:15:53Z,usnnjdm9,serial-reaction-time,1,R,5,1,41,4321,0,2,390.19999999925494,112,L
2023-04-04T13:15:53Z,usnnjdm9,serial-reaction-time,1,P,5,1,42,4321,0,4,344.80000000074506,124,H
2023-04-04T13:15:54Z,usnnjdm9,serial-reaction-time,1,R,5,1,43,4321,0,1,492,241,H
2023-04-04T13:15:54Z,usnnjdm9,serial-reaction-time,1,P,5,1,44,4321,0,3,452.8999999985099,413,H
2023-04-04T13:15:55Z,usnnjdm9,serial-reaction-time,1,R,5,1,45,4321,0,2,471.6000000014901,132,L
2023-04-04T13:15:55Z,usnnjdm9,serial-reaction-time,1,P,5,1,46,4321,0,2,321.3999999985099,322,H
2023-04-04T13:15:56Z,usnnjdm9,serial-reaction-time,NA,R,5,1,47,4321,0,3,333.5999999977648,223,L
2023-04-04T13:15:56Z,usnnjdm9,serial-reaction-time,1,R,5,0,47,4321,0,3,544.6999999992549,223,L
2023-04-04T13:15:57Z,usnnjdm9,serial-reaction-time,1,P,5,1,48,4321,0,1,352.8999999985099,231,H
2023-04-04T13:15:57Z,usnnjdm9,serial-reaction-time,1,R,5,1,49,4321,0,1,327.80000000074506,311,L
2023-04-04T13:15:58Z,usnnjdm9,serial-reaction-time,1,P,5,1,50,4321,0,4,483.19999999925494,114,H
2023-04-04T13:15:58Z,usnnjdm9,serial-reaction-time,1,R,5,1,51,4321,0,2,367.69999999925494,142,L
2023-04-04T13:15:59Z,usnnjdm9,serial-reaction-time,1,P,5,1,52,4321,0,3,350.79999999701977,423,H
2023-04-04T13:15:59Z,usnnjdm9,serial-reaction-time,1,R,5,1,53,4321,0,3,341.0999999977648,233,L
2023-04-04T13:16:00Z,usnnjdm9,serial-reaction-time,1,P,5,1,54,4321,0,2,426.29999999701977,332,H
2023-04-04T13:16:00Z,usnnjdm9,serial-reaction-time,1,R,5,1,55,4321,0,4,407.30000000074506,324,L
2023-04-04T13:16:01Z,usnnjdm9,serial-reaction-time,1,P,5,1,56,4321,0,1,312.5,241,H
2023-04-04T13:16:01Z,usnnjdm9,serial-reaction-time,1,R,5,1,57,4321,0,1,249.39999999850988,411,L
2023-04-04T13:16:02Z,usnnjdm9,serial-reaction-time,1,P,5,1,58,4321,0,4,377.8999999985099,114,H
2023-04-04T13:16:02Z,usnnjdm9,serial-reaction-time,1,R,5,1,59,4321,0,1,249,141,T
2023-04-04T13:16:03Z,usnnjdm9,serial-reaction-time,1,P,5,1,60,4321,0,3,406.9000000022352,413,H
2023-04-04T13:16:03Z,usnnjdm9,serial-reaction-time,NA,R,5,1,61,4321,0,2,332.30000000074506,132,L
2023-04-04T13:16:03Z,usnnjdm9,serial-reaction-time,1,R,5,0,61,4321,0,2,549.5,132,L
2023-04-04T13:16:04Z,usnnjdm9,serial-reaction-time,1,P,5,1,62,4321,0,2,331.19999999925494,322,H
2023-04-04T13:16:04Z,usnnjdm9,serial-reaction-time,1,R,5,1,63,4321,0,4,323.19999999925494,224,L
2023-04-04T13:16:05Z,usnnjdm9,serial-reaction-time,1,P,5,1,64,4321,0,1,327.6000000014901,241,H
2023-04-04T13:16:05Z,usnnjdm9,serial-reaction-time,1,R,5,1,65,4321,0,1,337.4000000022352,411,L
2023-04-04T13:16:06Z,usnnjdm9,serial-reaction-time,1,P,5,1,66,4321,0,4,320.30000000074506,114,H
2023-04-04T13:16:06Z,usnnjdm9,serial-reaction-time,NA,R,5,1,67,4321,0,2,348.69999999925494,142,L
2023-04-04T13:16:06Z,usnnjdm9,serial-reaction-time,1,R,5,0,67,4321,0,2,516.6000000014901,142,L
2023-04-04T13:16:07Z,usnnjdm9,serial-reaction-time,1,P,5,1,68,4321,0,3,358.30000000074506,423,H
2023-04-04T13:16:07Z,usnnjdm9,serial-reaction-time,1,R,5,1,69,4321,0,3,356,233,L
2023-04-04T13:16:08Z,usnnjdm9,serial-reaction-time,1,P,5,1,70,4321,0,2,455.3999999985099,332,H
2023-04-04T13:16:09Z,usnnjdm9,serial-reaction-time,1,R,5,1,71,4321,0,1,433.19999999925494,321,L
2023-04-04T13:16:09Z,usnnjdm9,serial-reaction-time,1,P,5,1,72,4321,0,1,285.80000000074506,211,H
2023-04-04T13:16:09Z,usnnjdm9,serial-reaction-time,1,R,5,1,73,4321,0,1,318.80000000074506,111,R
2023-04-04T13:16:10Z,usnnjdm9,serial-reaction-time,1,P,5,1,74,4321,0,4,306.20000000298023,114,H
2023-04-04T13:16:10Z,usnnjdm9,serial-reaction-time,1,R,5,1,75,4321,0,4,328.9000000022352,144,H
2023-04-04T13:16:11Z,usnnjdm9,serial-reaction-time,1,P,5,1,76,4321,0,3,322.69999999925494,443,H
2023-04-04T13:16:11Z,usnnjdm9,serial-reaction-time,1,R,5,1,77,4321,0,1,435.5,431,L
2023-04-04T13:16:12Z,usnnjdm9,serial-reaction-time,NA,P,5,1,78,4321,0,2,259.5,312,H
2023-04-04T13:16:12Z,usnnjdm9,serial-reaction-time,1,P,5,0,78,4321,0,2,514.1999999992549,312,H
2023-04-04T13:16:13Z,usnnjdm9,serial-reaction-time,1,R,5,1,79,4321,0,2,226.30000000074503,122,L
2023-04-04T13:16:13Z,usnnjdm9,serial-reaction-time,1,P,5,1,80,4321,0,1,379.6000000014901,221,H
2023-04-04T13:16:18Z,usnnjdm9,html-keyboard-response,NA,NA,NA,NA,NA,NA,NA,NA,NA,NA,NA
2023-04-04T13:16:26Z,usnnjdm9,html-keyboard-response,NA,NA,NA,NA,NA,NA,NA,NA,NA,NA,NA
2023-04-04T13:16:28Z,usnnjdm9,serial-reaction-time,1,R,6,1,1,4321,0,2,402.30000000074506,2,X
2023-04-04T13:16:28Z,usnnjdm9,serial-reaction-time,1,P,6,1,2,4321,0,4,407.30000000074506,24,X
2023-04-04T13:16:29Z,usnnjdm9,serial-reaction-time,1,R,6,1,3,4321,0,2,341,242,T
2023-04-04T13:16:29Z,usnnjdm9,serial-reaction-time,1,P,6,1,4,4321,0,3,320.80000000074506,423,H
2023-04-04T13:16:30Z,usnnjdm9,serial-reaction-time,1,R,6,1,5,4321,0,4,307,234,L
2023-04-04T13:16:30Z,usnnjdm9,serial-reaction-time,1,P,6,1,6,4321,0,2,299.30000000074506,342,H
2023-04-04T13:16:30Z,usnnjdm9,serial-reaction-time,1,R,6,1,7,4321,0,2,300.69999999925494,422,L
2023-04-04T13:16:31Z,usnnjdm9,serial-reaction-time,1,P,6,1,8,4321,0,1,324.70000000298023,221,H
2023-04-04T13:16:31Z,usnnjdm9,serial-reaction-time,1,R,6,1,9,4321,0,2,302.4000000022352,212,T
2023-04-04T13:16:32Z,usnnjdm9,serial-reaction-time,1,P,6,1,10,4321,0,4,361.1000000014901,124,H
2023-04-04T13:16:32Z,usnnjdm9,serial-reaction-time,1,R,6,1,11,4321,0,4,376.80000000074506,244,L
2023-04-04T13:16:33Z,usnnjdm9,serial-reaction-time,1,P,6,1,12,4321,0,3,318.30000000074506,443,H
2023-04-04T13:16:33Z,usnnjdm9,serial-reaction-time,1,R,6,1,13,4321,0,1,319,431,L
2023-04-04T13:16:34Z,usnnjdm9,serial-reaction-time,1,P,6,1,14,4321,0,2,301.3999999985099,312,H
2023-04-04T13:16:34Z,usnnjdm9,serial-reaction-time,1,R,6,1,15,4321,0,4,391,124,H
2023-04-04T13:16:35Z,usnnjdm9,serial-reaction-time,1,P,6,1,16,4321,0,1,365.19999999925494,241,H
2023-04-04T13:16:35Z,usnnjdm9,serial-reaction-time,1,R,6,1,17,4321,0,3,420.1000000014901,413,H
2023-04-04T13:16:36Z,usnnjdm9,serial-reaction-time,1,P,6,1,18,4321,0,4,286.8999999985099,134,H
2023-04-04T13:16:36Z,usnnjdm9,serial-reaction-time,NA,R,6,1,19,4321,0,2,434.80000000074506,342,H
2023-04-04T13:16:37Z,usnnjdm9,serial-reaction-time,1,R,6,0,19,4321,0,2,555.1000000014901,342,H
2023-04-04T13:16:37Z,usnnjdm9,serial-reaction-time,1,P,6,1,20,4321,0,3,346.5,423,H
2023-04-04T13:16:38Z,usnnjdm9,serial-reaction-time,1,R,6,1,21,4321,0,3,357.30000000074506,233,L
2023-04-04T13:16:38Z,usnnjdm9,serial-reaction-time,1,P,6,1,22,4321,0,2,428.30000000074506,332,H
2023-04-04T13:16:39Z,usnnjdm9,serial-reaction-time,1,R,6,1,23,4321,0,4,325.69999999925494,324,L
2023-04-04T13:16:39Z,usnnjdm9,serial-reaction-time,1,P,6,1,24,4321,0,1,376.80000000074506,241,H
2023-04-04T13:16:40Z,usnnjdm9,serial-reaction-time,1,R,6,1,25,4321,0,4,382.5,414,T
2023-04-04T13:16:40Z,usnnjdm9,serial-reaction-time,1,P,6,1,26,4321,0,4,340.5,144,H
2023-04-04T13:16:41Z,usnnjdm9,serial-reaction-time,1,R,6,1,27,4321,0,4,303.5999999977648,444,R
2023-04-04T13:16:41Z,usnnjdm9,serial-reaction-time,1,P,6,1,28,4321,0,3,445.80000000074506,443,H
2023-04-04T13:16:42Z,usnnjdm9,serial-reaction-time,NA,R,6,1,29,4321,0,2,398.19999999925494,432,L
2023-04-04T13:16:42Z,usnnjdm9,serial-reaction-time,1,R,6,0,29,4321,0,2,649.1999999992549,432,L
2023-04-04T13:16:43Z,usnnjdm9,serial-reaction-time,1,P,6,1,30,4321,0,2,304.4000000022352,322,H
2023-04-04T13:16:43Z,usnnjdm9,serial-reaction-time,1,R,6,1,31,4321,0,1,345.5999999977648,221,H
2023-04-04T13:16:43Z,usnnjdm9,serial-reaction-time,1,P,6,1,32,4321,0,1,281.8999999985099,211,H
2023-04-04T13:16:44Z,usnnjdm9,serial-reaction-time,1,R,6,1,33,4321,0,2,393.5999999977648,112,L
2023-04-04T13:16:44Z,usnnjdm9,serial-reaction-time,1,P,6,1,34,4321,0,4,370.5,124,H
2023-04-04T13:16:45Z,usnnjdm9,serial-reaction-time,1,R,6,1,35,4321,0,2,384.30000000074506,242,T
2023-04-04T13:16:46Z,usnnjdm9,serial-reaction-time,1,P,6,1,36,4321,0,3,449.3999999985099,423,H
2023-04-04T13:16:46Z,usnnjdm9,serial-reaction-time,1,R,6,1,37,4321,0,3,296.6000000014901,233,L
2023-04-04T13:16:47Z,usnnjdm9,serial-reaction-time,1,P,6,1,38,4321,0,2,284.69999999925494,332,H
2023-04-04T13:16:47Z,usnnjdm9,serial-reaction-time,1,R,6,1,39,4321,0,4,341.69999999925494,324,L
2023-04-04T13:16:47Z,usnnjdm9,serial-reaction-time,1,P,6,1,40,4321,0,1,266.5,241,H
2023-04-04T13:16:48Z,usnnjdm9,serial-reaction-time,1,R,6,1,41,4321,0,4,402.70000000298023,414,T
2023-04-04T13:16:49Z,usnnjdm9,serial-reaction-time,1,P,6,1,42,4321,0,4,411.30000000074506,144,H
2023-04-04T13:16:49Z,usnnjdm9,serial-reaction-time,1,R,6,1,43,4321,0,2,352.19999999925494,442,L
2023-04-04T13:16:50Z,usnnjdm9,serial-reaction-time,NA,P,6,1,44,4321,0,3,363,423,H
2023-04-04T13:16:50Z,usnnjdm9,serial-reaction-time,1,P,6,0,44,4321,0,3,371.8999999985099,423,H
2023-04-04T13:16:50Z,usnnjdm9,serial-reaction-time,1,R,6,1,45,4321,0,2,635.3000000007451,232,T
2023-04-04T13:16:51Z,usnnjdm9,serial-reaction-time,1,P,6,1,46,4321,0,2,347.9000000022352,322,H
2023-04-04T13:16:51Z,usnnjdm9,serial-reaction-time,1,R,6,1,47,4321,0,3,478.9000000022352,223,L
2023-04-04T13:16:52Z,usnnjdm9,serial-reaction-time,1,P,6,1,48,4321,0,1,314.80000000074506,231,H
2023-04-04T13:16:52Z,usnnjdm9,serial-reaction-time,1,R,6,1,49,4321,0,2,406,312,H
2023-04-04T13:16:53Z,usnnjdm9,serial-reaction-time,1,P,6,1,50,4321,0,4,478.19999999925494,124,H
2023-04-04T13:16:54Z,usnnjdm9,serial-reaction-time,NA,R,6,1,51,4321,0,3,322.0999999977648,243,L
2023-04-04T13:16:54Z,usnnjdm9,serial-reaction-time,1,R,6,0,51,4321,0,3,620.1999999992549,243,L
2023-04-04T13:16:54Z,usnnjdm9,serial-reaction-time,1,P,6,1,52,4321,0,3,395.70000000298023,433,H
2023-04-04T13:16:55Z,usnnjdm9,serial-reaction-time,1,R,6,1,53,4321,0,3,264.70000000298023,333,R
2023-04-04T13:16:55Z,usnnjdm9,serial-reaction-time,1,P,6,1,54,4321,0,2,398.5,332,H
2023-04-04T13:16:56Z,usnnjdm9,serial-reaction-time,1,R,6,1,55,4321,0,4,370.80000000074506,324,L
2023-04-04T13:16:56Z,usnnjdm9,serial-reaction-time,1,P,6,1,56,4321,0,1,307.1000000014901,241,H
2023-04-04T13:16:57Z,usnnjdm9,serial-reaction-time,1,R,6,1,57,4321,0,1,391.19999999925494,411,L
2023-04-04T13:16:58Z,usnnjdm9,serial-reaction-time,1,P,6,1,58,4321,0,4,456.3999999985099,114,H
2023-04-04T13:16:58Z,usnnjdm9,serial-reaction-time,1,R,6,1,59,4321,0,4,319.80000000074506,144,H
2023-04-04T13:16:59Z,usnnjdm9,serial-reaction-time,NA,P,6,1,60,4321,0,3,383.1000000014901,443,H
2023-04-04T13:16:59Z,usnnjdm9,serial-reaction-time,1,P,6,0,60,4321,0,3,417.4000000022352,443,H
2023-04-04T13:16:59Z,usnnjdm9,serial-reaction-time,1,R,6,1,61,4321,0,2,431.80000000074506,432,L
2023-04-04T13:17:00Z,usnnjdm9,serial-reaction-time,1,P,6,1,62,4321,0,2,336.69999999925494,322,H
2023-04-04T13:17:00Z,usnnjdm9,serial-reaction-time,1,R,6,1,63,4321,0,4,379.5,224,L
2023-04-04T13:17:01Z,usnnjdm9,serial-reaction-time,1,P,6,1,64,4321,0,1,366,241,H
2023-04-04T13:17:01Z,usnnjdm9,serial-reaction-time,1,R,6,1,65,4321,0,3,393.0999999977648,413,H
2023-04-04T13:17:02Z,usnnjdm9,serial-reaction-time,1,P,6,1,66,4321,0,4,317.19999999925494,134,H
2023-04-04T13:17:02Z,usnnjdm9,serial-reaction-time,1,R,6,1,67,4321,0,4,468.19999999925494,344,L
2023-04-04T13:17:03Z,usnnjdm9,serial-reaction-time,NA,P,6,1,68,4321,0,3,224.39999999850988,443,H
2023-04-04T13:17:03Z,usnnjdm9,serial-reaction-time,1,P,6,0,68,4321,0,3,470.8999999985099,443,H
2023-04-04T13:17:03Z,usnnjdm9,serial-reaction-time,1,R,6,1,69,4321,0,3,302.5,433,H
2023-04-04T13:17:04Z,usnnjdm9,serial-reaction-time,1,P,6,1,70,4321,0,2,327,332,H
2023-04-04T13:17:04Z,usnnjdm9,serial-reaction-time,1,R,6,1,71,4321,0,2,268.29999999701977,322,H
2023-04-04T13:17:05Z,usnnjdm9,serial-reaction-time,1,P,6,1,72,4321,0,1,330.5999999977648,221,H
2023-04-04T13:17:05Z,usnnjdm9,serial-reaction-time,1,R,6,1,73,4321,0,4,347.30000000074506,214,L
2023-04-04T13:17:06Z,usnnjdm9,serial-reaction-time,1,P,6,1,74,4321,0,4,362.19999999925494,144,H
2023-04-04T13:17:06Z,usnnjdm9,serial-reaction-time,1,R,6,1,75,4321,0,1,341.8999999985099,441,L
2023-04-04T13:17:07Z,usnnjdm9,serial-reaction-time,1,P,6,1,76,4321,0,3,381.80000000074506,413,H
2023-04-04T13:17:07Z,usnnjdm9,serial-reaction-time,1,R,6,1,77,4321,0,2,414.1000000014901,132,L
2023-04-04T13:17:08Z,usnnjdm9,serial-reaction-time,1,P,6,1,78,4321,0,2,310.3999999985099,322,H
2023-04-04T13:17:08Z,usnnjdm9,serial-reaction-time,NA,R,6,1,79,4321,0,3,322.30000000074506,223,L
2023-04-04T13:17:09Z,usnnjdm9,serial-reaction-time,1,R,6,0,79,4321,0,3,572,223,L
2023-04-04T13:17:09Z,usnnjdm9,serial-reaction-time,1,P,6,1,80,4321,0,1,370.19999999925494,231,H
2023-04-04T13:17:14Z,usnnjdm9,html-keyboard-response,NA,NA,NA,NA,NA,NA,NA,NA,NA,NA,NA
2023-04-04T13:17:31Z,usnnjdm9,html-keyboard-response,NA,NA,NA,NA,NA,NA,NA,NA,NA,NA,NA
2023-04-04T13:17:33Z,usnnjdm9,serial-reaction-time,1,R,7,1,1,4321,0,1,297.69999999925494,1,X
2023-04-04T13:17:33Z,usnnjdm9,serial-reaction-time,1,P,7,1,2,4321,0,4,300.69999999925494,14,X
2023-04-04T13:17:34Z,usnnjdm9,serial-reaction-time,1,R,7,1,3,4321,0,4,293.80000000074506,144,H
2023-04-04T13:17:34Z,usnnjdm9,serial-reaction-time,NA,P,7,1,4,4321,0,3,219.80000000074503,443,H
2023-04-04T13:17:34Z,usnnjdm9,serial-reaction-time,1,P,7,0,4,4321,0,3,332.3999999985099,443,H
2023-04-04T13:17:35Z,usnnjdm9,serial-reaction-time,1,R,7,1,5,4321,0,1,292.1000000014901,431,L
2023-04-04T13:17:35Z,usnnjdm9,serial-reaction-time,NA,P,7,1,6,4321,0,2,269.70000000298023,312,H
2023-04-04T13:17:36Z,usnnjdm9,serial-reaction-time,1,P,7,0,6,4321,0,2,1033.4000000022352,312,H
2023-04-04T13:17:36Z,usnnjdm9,serial-reaction-time,1,R,7,1,7,4321,0,4,380.8999999985099,124,H
2023-04-04T13:17:37Z,usnnjdm9,serial-reaction-time,1,P,7,1,8,4321,0,1,330.8999999985099,241,H
2023-04-04T13:17:37Z,usnnjdm9,serial-reaction-time,1,R,7,1,9,4321,0,3,443.69999999925494,413,H
2023-04-04T13:17:38Z,usnnjdm9,serial-reaction-time,1,P,7,1,10,4321,0,4,431,134,H
2023-04-04T13:17:38Z,usnnjdm9,serial-reaction-time,NA,R,7,1,11,4321,0,1,376.5999999977648,341,L
2023-04-04T13:17:39Z,usnnjdm9,serial-reaction-time,1,R,7,0,11,4321,0,1,653.6999999955297,341,L
2023-04-04T13:17:39Z,usnnjdm9,serial-reaction-time,NA,P,7,1,12,4321,0,3,309,413,H
2023-04-04T13:17:39Z,usnnjdm9,serial-reaction-time,1,P,7,0,12,4321,0,3,542.8000000007451,413,H
2023-04-04T13:17:40Z,usnnjdm9,serial-reaction-time,1,R,7,1,13,4321,0,3,346.9000000022352,133,L
2023-04-04T13:17:40Z,usnnjdm9,serial-reaction-time,1,P,7,1,14,4321,0,2,345.30000000074506,332,H
2023-04-04T13:17:41Z,usnnjdm9,serial-reaction-time,1,R,7,1,15,4321,0,1,347,321,L
2023-04-04T13:17:41Z,usnnjdm9,serial-reaction-time,NA,P,7,1,16,4321,0,1,277.1000000014901,211,H
2023-04-04T13:17:42Z,usnnjdm9,serial-reaction-time,1,P,7,0,16,4321,0,1,549.9000000022352,211,H
2023-04-04T13:17:42Z,usnnjdm9,serial-reaction-time,1,R,7,1,17,4321,0,1,366.6000000014901,111,R
2023-04-04T13:17:43Z,usnnjdm9,serial-reaction-time,NA,P,7,1,18,4321,0,4,351.3999999985099,114,H
2023-04-04T13:17:43Z,usnnjdm9,serial-reaction-time,1,P,7,0,18,4321,0,4,614,114,H
2023-04-04T13:17:44Z,usnnjdm9,serial-reaction-time,1,R,7,1,19,4321,0,3,570.8000000007451,143,L
2023-04-04T13:17:44Z,usnnjdm9,serial-reaction-time,1,P,7,1,20,4321,0,3,281.3999999985099,433,H
2023-04-04T13:17:45Z,usnnjdm9,serial-reaction-time,1,R,7,1,21,4321,0,3,320.80000000074506,333,R
2023-04-04T13:17:45Z,usnnjdm9,serial-reaction-time,NA,P,7,1,22,4321,0,2,336.4000000022352,332,H
2023-04-04T13:17:45Z,usnnjdm9,serial-reaction-time,1,P,7,0,22,4321,0,2,539.8000000007451,332,H
2023-04-04T13:17:46Z,usnnjdm9,serial-reaction-time,1,R,7,1,23,4321,0,1,360.8999999985099,321,L
2023-04-04T13:17:46Z,usnnjdm9,serial-reaction-time,1,P,7,1,24,4321,0,1,323.9000000022352,211,H
2023-04-04T13:17:47Z,usnnjdm9,serial-reaction-time,1,R,7,1,25,4321,0,3,510.30000000074506,113,L
2023-04-04T13:17:47Z,usnnjdm9,serial-reaction-time,1,P,7,1,26,4321,0,4,361.5,134,H
2023-04-04T13:17:48Z,usnnjdm9,serial-reaction-time,1,R,7,1,27,4321,0,2,446.69999999925494,342,H
2023-04-04T13:17:49Z,usnnjdm9,serial-reaction-time,1,P,7,1,28,4321,0,3,366.0999999977648,423,H
2023-04-04T13:17:49Z,usnnjdm9,serial-reaction-time,NA,R,7,1,29,4321,0,1,292.3999999985099,231,H
2023-04-04T13:17:49Z,usnnjdm9,serial-reaction-time,1,R,7,0,29,4321,0,1,552.3000000007451,231,H
2023-04-04T13:17:50Z,usnnjdm9,serial-reaction-time,1,P,7,1,30,4321,0,2,584.6999999992549,312,H
2023-04-04T13:17:51Z,usnnjdm9,serial-reaction-time,1,R,7,1,31,4321,0,1,379.19999999925494,121,T
2023-04-04T13:17:51Z,usnnjdm9,serial-reaction-time,1,P,7,1,32,4321,0,1,406.30000000074506,211,H
2023-04-04T13:17:52Z,usnnjdm9,serial-reaction-time,1,R,7,1,33,4321,0,2,375.80000000074506,112,L
2023-04-04T13:17:52Z,usnnjdm9,serial-reaction-time,1,P,7,1,34,4321,0,4,360.69999999925494,124,H
2023-04-04T13:17:53Z,usnnjdm9,serial-reaction-time,1,R,7,1,35,4321,0,4,347.8999999985099,244,L
2023-04-04T13:17:53Z,usnnjdm9,serial-reaction-time,1,P,7,1,36,4321,0,3,385.79999999701977,443,H
2023-04-04T13:17:54Z,usnnjdm9,serial-reaction-time,1,R,7,1,37,4321,0,2,314.69999999925494,432,L
2023-04-04T13:17:54Z,usnnjdm9,serial-reaction-time,1,P,7,1,38,4321,0,2,331.8999999985099,322,H
2023-04-04T13:17:55Z,usnnjdm9,serial-reaction-time,1,R,7,1,39,4321,0,4,332.19999999925494,224,L
2023-04-04T13:17:55Z,usnnjdm9,serial-reaction-time,1,P,7,1,40,4321,0,1,482.8999999985099,241,H
2023-04-04T13:17:56Z,usnnjdm9,serial-reaction-time,1,R,7,1,41,4321,0,1,365.69999999925494,411,L
2023-04-04T13:17:56Z,usnnjdm9,serial-reaction-time,1,P,7,1,42,4321,0,4,384.19999999925494,114,H
2023-04-04T13:17:57Z,usnnjdm9,serial-reaction-time,NA,R,7,1,43,4321,0,1,345,141,T
2023-04-04T13:17:57Z,usnnjdm9,serial-reaction-time,1,R,7,0,43,4321,0,1,619.9000000022352,141,T
2023-04-04T13:17:58Z,usnnjdm9,serial-reaction-time,1,P,7,1,44,4321,0,3,371.0999999977648,413,H
2023-04-04T13:17:58Z,usnnjdm9,serial-reaction-time,1,R,7,1,45,4321,0,4,389.69999999925494,134,H
2023-04-04T13:17:59Z,usnnjdm9,serial-reaction-time,1,P,7,1,46,4321,0,2,465.80000000074506,342,H
2023-04-04T13:17:59Z,usnnjdm9,serial-reaction-time,1,R,7,1,47,4321,0,4,360.3999999985099,424,T
2023-04-04T13:18:00Z,usnnjdm9,serial-reaction-time,1,P,7,1,48,4321,0,1,331.79999999701977,241,H
2023-04-04T13:18:00Z,usnnjdm9,serial-reaction-time,1,R,7,1,49,4321,0,4,313.1000000014901,414,T
2023-04-04T13:18:01Z,usnnjdm9,serial-reaction-time,1,P,7,1,50,4321,0,4,322.8999999985099,144,H
2023-04-04T13:18:01Z,usnnjdm9,serial-reaction-time,1,R,7,1,51,4321,0,4,271.9000000022352,444,R
2023-04-04T13:18:02Z,usnnjdm9,serial-reaction-time,1,P,7,1,52,4321,0,3,435.80000000074506,443,H
2023-04-04T13:18:02Z,usnnjdm9,serial-reaction-time,1,R,7,1,53,4321,0,1,358.80000000074506,431,L
2023-04-04T13:18:03Z,usnnjdm9,serial-reaction-time,1,P,7,1,54,4321,0,2,387,312,H
2023-04-04T13:18:03Z,usnnjdm9,serial-reaction-time,NA,R,7,1,55,4321,0,1,333.69999999925494,121,T
2023-04-04T13:18:03Z,usnnjdm9,serial-reaction-time,1,R,7,0,55,4321,0,1,577.8999999985099,121,T
2023-04-04T13:18:04Z,usnnjdm9,serial-reaction-time,1,P,7,1,56,4321,0,1,332.5,211,H
2023-04-04T13:18:04Z,usnnjdm9,serial-reaction-time,1,R,7,1,57,4321,0,1,338.69999999925494,111,R
2023-04-04T13:18:05Z,usnnjdm9,serial-reaction-time,1,P,7,1,58,4321,0,4,354.80000000074506,114,H
2023-04-04T13:18:05Z,usnnjdm9,serial-reaction-time,1,R,7,1,59,4321,0,4,287.5,144,H
2023-04-04T13:18:06Z,usnnjdm9,serial-reaction-time,1,P,7,1,60,4321,0,3,389.3999999985099,443,H
2023-04-04T13:18:06Z,usnnjdm9,serial-reaction-time,1,R,7,1,61,4321,0,4,350.20000000298023,434,T
2023-04-04T13:18:07Z,usnnjdm9,serial-reaction-time,1,P,7,1,62,4321,0,2,385.3999999985099,342,H
2023-04-04T13:18:07Z,usnnjdm9,serial-reaction-time,1,R,7,1,63,4321,0,2,372.3999999985099,422,L
2023-04-04T13:18:08Z,usnnjdm9,serial-reaction-time,1,P,7,1,64,4321,0,1,326.70000000298023,221,H
2023-04-04T13:18:08Z,usnnjdm9,serial-reaction-time,1,R,7,1,65,4321,0,2,354.5,212,T
2023-04-04T13:18:09Z,usnnjdm9,serial-reaction-time,1,P,7,1,66,4321,0,4,381.6000000014901,124,H
2023-04-04T13:18:09Z,usnnjdm9,serial-reaction-time,1,R,7,1,67,4321,0,4,334.19999999925494,244,L
2023-04-04T13:18:10Z,usnnjdm9,serial-reaction-time,1,P,7,1,68,4321,0,3,468.3999999985099,443,H
2023-04-04T13:18:11Z,usnnjdm9,serial-reaction-time,1,R,7,1,69,4321,0,3,356.29999999701977,433,H
2023-04-04T13:18:11Z,usnnjdm9,serial-reaction-time,NA,P,7,1,70,4321,0,2,334.80000000074506,332,H
2023-04-04T13:18:11Z,usnnjdm9,serial-reaction-time,1,P,7,0,70,4321,0,2,545.8000000007451,332,H
2023-04-04T13:18:12Z,usnnjdm9,serial-reaction-time,NA,R,7,1,71,4321,0,3,367.8999999985099,323,T
2023-04-04T13:18:12Z,usnnjdm9,serial-reaction-time,1,R,7,0,71,4321,0,3,624.5,323,T
2023-04-04T13:18:13Z,usnnjdm9,serial-reaction-time,1,P,7,1,72,4321,0,1,438.80000000074506,231,H
2023-04-04T13:18:13Z,usnnjdm9,serial-reaction-time,NA,R,7,1,73,4321,0,2,500,312,H
2023-04-04T13:18:14Z,usnnjdm9,serial-reaction-time,1,R,7,0,73,4321,0,2,677.1999999992549,312,H
2023-04-04T13:18:14Z,usnnjdm9,serial-reaction-time,1,P,7,1,74,4321,0,4,445.5,124,H
2023-04-04T13:18:15Z,usnnjdm9,serial-reaction-time,1,R,7,1,75,4321,0,3,464.3999999985099,243,L
2023-04-04T13:18:15Z,usnnjdm9,serial-reaction-time,1,P,7,1,76,4321,0,3,360,433,H
2023-04-04T13:18:16Z,usnnjdm9,serial-reaction-time,1,R,7,1,77,4321,0,1,481.79999999701977,331,L
2023-04-04T13:18:16Z,usnnjdm9,serial-reaction-time,1,P,7,1,78,4321,0,2,427.5,312,H
2023-04-04T13:18:17Z,usnnjdm9,serial-reaction-time,1,R,7,1,79,4321,0,3,477,123,L
2023-04-04T13:18:18Z,usnnjdm9,serial-reaction-time,1,P,7,1,80,4321,0,1,490.80000000074506,231,H
2023-04-04T13:18:23Z,usnnjdm9,html-keyboard-response,NA,NA,NA,NA,NA,NA,NA,NA,NA,NA,NA
2023-04-04T13:18:36Z,usnnjdm9,html-keyboard-response,NA,NA,NA,NA,NA,NA,NA,NA,NA,NA,NA
2023-04-04T13:18:37Z,usnnjdm9,serial-reaction-time,1,R,8,1,1,4321,0,2,352.9000000022352,2,X
2023-04-04T13:18:37Z,usnnjdm9,serial-reaction-time,1,P,8,1,2,4321,0,4,308.5999999977648,24,X
2023-04-04T13:18:38Z,usnnjdm9,serial-reaction-time,NA,R,8,1,3,4321,0,2,302.30000000074506,242,T
2023-04-04T13:18:38Z,usnnjdm9,serial-reaction-time,1,R,8,0,3,4321,0,2,381.30000000074506,242,T
2023-04-04T13:18:39Z,usnnjdm9,serial-reaction-time,1,P,8,1,4,4321,0,3,342.5,423,H
2023-04-04T13:18:39Z,usnnjdm9,serial-reaction-time,1,R,8,1,5,4321,0,3,367.19999999925494,233,L
2023-04-04T13:18:39Z,usnnjdm9,serial-reaction-time,NA,P,8,1,6,4321,0,2,315.30000000074506,332,H
2023-04-04T13:18:40Z,usnnjdm9,serial-reaction-time,1,P,8,0,6,4321,0,2,496.9000000022352,332,H
2023-04-04T13:18:40Z,usnnjdm9,serial-reaction-time,1,R,8,1,7,4321,0,4,404.6000000014901,324,L
2023-04-04T13:18:41Z,usnnjdm9,serial-reaction-time,1,P,8,1,8,4321,0,1,345,241,H
2023-04-04T13:18:41Z,usnnjdm9,serial-reaction-time,1,R,8,1,9,4321,0,1,298.3999999985099,411,L
2023-04-04T13:18:42Z,usnnjdm9,serial-reaction-time,1,P,8,1,10,4321,0,4,329.19999999925494,114,H
2023-04-04T13:18:42Z,usnnjdm9,serial-reaction-time,1,R,8,1,11,4321,0,1,314.5,141,T
2023-04-04T13:18:43Z,usnnjdm9,serial-reaction-time,1,P,8,1,12,4321,0,3,391.5,413,H
2023-04-04T13:18:43Z,usnnjdm9,serial-reaction-time,1,R,8,1,13,4321,0,3,302.9000000022352,133,L
2023-04-04T13:18:44Z,usnnjdm9,serial-reaction-time,NA,P,8,1,14,4321,0,2,265.3999999985099,332,H
2023-04-04T13:18:44Z,usnnjdm9,serial-reaction-time,1,P,8,0,14,4321,0,2,494.3999999985099,332,H
2023-04-04T13:18:44Z,usnnjdm9,serial-reaction-time,1,R,8,1,15,4321,0,4,473.9000000022352,324,L
2023-04-04T13:18:45Z,usnnjdm9,serial-reaction-time,1,P,8,1,16,4321,0,1,358.4000000022352,241,H
2023-04-04T13:18:46Z,usnnjdm9,serial-reaction-time,1,R,8,1,17,4321,0,4,433,414,T
2023-04-04T13:18:46Z,usnnjdm9,serial-reaction-time,1,P,8,1,18,4321,0,4,441.29999999701977,144,H
2023-04-04T13:18:47Z,usnnjdm9,serial-reaction-time,1,R,8,1,19,4321,0,3,417.5,443,H
2023-04-04T13:18:47Z,usnnjdm9,serial-reaction-time,1,P,8,1,20,4321,0,3,276.80000000074506,433,H
2023-04-04T13:18:48Z,usnnjdm9,serial-reaction-time,1,R,8,1,21,4321,0,2,355.9000000022352,332,H
2023-04-04T13:18:48Z,usnnjdm9,serial-reaction-time,1,P,8,1,22,4321,0,2,213,322,H
2023-04-04T13:18:48Z,usnnjdm9,serial-reaction-time,1,R,8,1,23,4321,0,3,358.8999999985099,223,L
2023-04-04T13:18:49Z,usnnjdm9,serial-reaction-time,1,P,8,1,24,4321,0,1,451,231,H
2023-04-04T13:18:50Z,usnnjdm9,serial-reaction-time,1,R,8,1,25,4321,0,3,284.3999999985099,313,T
2023-04-04T13:18:50Z,usnnjdm9,serial-reaction-time,1,P,8,1,26,4321,0,4,277.3999999985099,134,H
2023-04-04T13:18:50Z,usnnjdm9,serial-reaction-time,NA,R,8,1,27,4321,0,3,202.09999999776483,343,T
2023-04-04T13:18:51Z,usnnjdm9,serial-reaction-time,1,R,8,0,27,4321,0,3,547.0999999977648,343,T
2023-04-04T13:18:51Z,usnnjdm9,serial-reaction-time,1,P,8,1,28,4321,0,3,350.30000000074506,433,H
2023-04-04T13:18:52Z,usnnjdm9,serial-reaction-time,1,R,8,1,29,4321,0,4,425.6000000014901,334,L
2023-04-04T13:18:52Z,usnnjdm9,serial-reaction-time,1,P,8,1,30,4321,0,2,351.5999999977648,342,H
2023-04-04T13:18:53Z,usnnjdm9,serial-reaction-time,NA,R,8,1,31,4321,0,3,184.69999999925497,423,H
2023-04-04T13:18:53Z,usnnjdm9,serial-reaction-time,1,R,8,0,31,4321,0,3,404.80000000074506,423,H
2023-04-04T13:18:53Z,usnnjdm9,serial-reaction-time,1,P,8,1,32,4321,0,1,386.9000000022352,231,H
2023-04-04T13:18:54Z,usnnjdm9,serial-reaction-time,1,R,8,1,33,4321,0,4,447.30000000074506,314,L
2023-04-04T13:18:54Z,usnnjdm9,serial-reaction-time,1,P,8,1,34,4321,0,4,291,144,H
2023-04-04T13:18:55Z,usnnjdm9,serial-reaction-time,1,R,8,1,35,4321,0,2,610,442,L
2023-04-04T13:18:56Z,usnnjdm9,serial-reaction-time,1,P,8,1,36,4321,0,3,404.9000000022352,423,H
2023-04-04T13:18:56Z,usnnjdm9,serial-reaction-time,1,R,8,1,37,4321,0,3,358.69999999925494,233,L
2023-04-04T13:18:57Z,usnnjdm9,serial-reaction-time,1,P,8,1,38,4321,0,2,494.3999999985099,332,H
2023-04-04T13:18:57Z,usnnjdm9,serial-reaction-time,1,R,8,1,39,4321,0,3,334.1000000014901,323,T
2023-04-04T13:18:58Z,usnnjdm9,serial-reaction-time,1,P,8,1,40,4321,0,1,385.1000000014901,231,H
2023-04-04T13:18:58Z,usnnjdm9,serial-reaction-time,1,R,8,1,41,4321,0,3,296.8999999985099,313,T
2023-04-04T13:18:59Z,usnnjdm9,serial-reaction-time,1,P,8,1,42,4321,0,4,314.1000000014901,134,H
2023-04-04T13:18:59Z,usnnjdm9,serial-reaction-time,NA,R,8,1,43,4321,0,4,340.69999999925494,344,L
2023-04-04T13:18:59Z,usnnjdm9,serial-reaction-time,1,R,8,0,43,4321,0,4,403.1000000014901,344,L
2023-04-04T13:19:00Z,usnnjdm9,serial-reaction-time,1,P,8,1,44,4321,0,3,342.9000000022352,443,H
2023-04-04T13:19:00Z,usnnjdm9,serial-reaction-time,1,R,8,1,45,4321,0,1,508.0999999977648,431,L
2023-04-04T13:19:01Z,usnnjdm9,serial-reaction-time,NA,P,8,1,46,4321,0,2,433.8999999985099,312,H
2023-04-04T13:19:01Z,usnnjdm9,serial-reaction-time,1,P,8,0,46,4321,0,2,635.9999999962747,312,H
2023-04-04T13:19:02Z,usnnjdm9,serial-reaction-time,1,R,8,1,47,4321,0,2,417.1000000014901,122,L
2023-04-04T13:19:02Z,usnnjdm9,serial-reaction-time,1,P,8,1,48,4321,0,1,446,221,H
2023-04-04T13:19:03Z,usnnjdm9,serial-reaction-time,1,R,8,1,49,4321,0,2,328,212,T
2023-04-04T13:19:04Z,usnnjdm9,serial-reaction-time,1,P,8,1,50,4321,0,4,474.5,124,H
2023-04-04T13:19:04Z,usnnjdm9,serial-reaction-time,1,R,8,1,51,4321,0,3,343.30000000074506,243,L
2023-04-04T13:19:05Z,usnnjdm9,serial-reaction-time,1,P,8,1,52,4321,0,3,388.69999999925494,433,H
2023-04-04T13:19:05Z,usnnjdm9,serial-reaction-time,1,R,8,1,53,4321,0,3,338.5,333,R
2023-04-04T13:19:06Z,usnnjdm9,serial-reaction-time,1,P,8,1,54,4321,0,2,370.29999999701977,332,H
2023-04-04T13:19:06Z,usnnjdm9,serial-reaction-time,1,R,8,1,55,4321,0,3,395.80000000074506,323,T
2023-04-04T13:19:07Z,usnnjdm9,serial-reaction-time,1,P,8,1,56,4321,0,1,359.80000000074506,231,H
2023-04-04T13:19:07Z,usnnjdm9,serial-reaction-time,1,R,8,1,57,4321,0,3,321.80000000074506,313,T
2023-04-04T13:19:08Z,usnnjdm9,serial-reaction-time,1,P,8,1,58,4321,0,4,325.69999999925494,134,H
2023-04-04T13:19:08Z,usnnjdm9,serial-reaction-time,1,R,8,1,59,4321,0,3,286,343,T
2023-04-04T13:19:08Z,usnnjdm9,serial-reaction-time,1,P,8,1,60,4321,0,3,307.6000000014901,433,H
2023-04-04T13:19:09Z,usnnjdm9,serial-reaction-time,1,R,8,1,61,4321,0,4,320.6000000014901,334,L
2023-04-04T13:19:10Z,usnnjdm9,serial-reaction-time,1,P,8,1,62,4321,0,2,475.80000000074506,342,H
2023-04-04T13:19:10Z,usnnjdm9,serial-reaction-time,1,R,8,1,63,4321,0,4,422.30000000074506,424,T
2023-04-04T13:19:11Z,usnnjdm9,serial-reaction-time,1,P,8,1,64,4321,0,1,388.30000000074506,241,H
2023-04-04T13:19:11Z,usnnjdm9,serial-reaction-time,1,R,8,1,65,4321,0,2,327.3999999985099,412,L
2023-04-04T13:19:12Z,usnnjdm9,serial-reaction-time,1,P,8,1,66,4321,0,4,375.29999999701977,124,H
2023-04-04T13:19:12Z,usnnjdm9,serial-reaction-time,1,R,8,1,67,4321,0,4,381.30000000074506,244,L
2023-04-04T13:19:13Z,usnnjdm9,serial-reaction-time,1,P,8,1,68,4321,0,3,255,443,H
2023-04-04T13:19:13Z,usnnjdm9,serial-reaction-time,1,R,8,1,69,4321,0,3,312.19999999925494,433,H
2023-04-04T13:19:14Z,usnnjdm9,serial-reaction-time,NA,P,8,1,70,4321,0,2,358.4000000022352,332,H
2023-04-04T13:19:14Z,usnnjdm9,serial-reaction-time,1,P,8,0,70,4321,0,2,507.6000000014901,332,H
2023-04-04T13:19:14Z,usnnjdm9,serial-reaction-time,1,R,8,1,71,4321,0,1,414.3999999985099,321,L
2023-04-04T13:19:15Z,usnnjdm9,serial-reaction-time,1,P,8,1,72,4321,0,1,403,211,H
2023-04-04T13:19:15Z,usnnjdm9,serial-reaction-time,1,R,8,1,73,4321,0,1,340.8999999985099,111,R
2023-04-04T13:19:16Z,usnnjdm9,serial-reaction-time,1,P,8,1,74,4321,0,4,338,114,H
2023-04-04T13:19:16Z,usnnjdm9,serial-reaction-time,1,R,8,1,75,4321,0,4,313.5,144,H
2023-04-04T13:19:17Z,usnnjdm9,serial-reaction-time,1,P,8,1,76,4321,0,3,295.30000000074506,443,H
2023-04-04T13:19:17Z,usnnjdm9,serial-reaction-time,1,R,8,1,77,4321,0,1,451.1000000014901,431,L
2023-04-04T13:19:18Z,usnnjdm9,serial-reaction-time,1,P,8,1,78,4321,0,2,269,312,H
2023-04-04T13:19:18Z,usnnjdm9,serial-reaction-time,1,R,8,1,79,4321,0,3,410.80000000074506,123,L
2023-04-04T13:19:19Z,usnnjdm9,serial-reaction-time,1,P,8,1,80,4321,0,1,376.6000000014901,231,H
2023-04-04T13:19:24Z,usnnjdm9,html-keyboard-response,NA,NA,NA,NA,NA,NA,NA,NA,NA,NA,NA
2023-04-04T13:19:32Z,usnnjdm9,html-keyboard-response,NA,NA,NA,NA,NA,NA,NA,NA,NA,NA,NA
2023-04-04T13:19:34Z,usnnjdm9,serial-reaction-time,1,R,9,1,1,4321,0,2,389.1000000014901,2,X
2023-04-04T13:19:34Z,usnnjdm9,serial-reaction-time,1,P,9,1,2,4321,0,4,328.5999999977648,24,X
2023-04-04T13:19:35Z,usnnjdm9,serial-reaction-time,1,R,9,1,3,4321,0,3,379.80000000074506,243,L
2023-04-04T13:19:35Z,usnnjdm9,serial-reaction-time,NA,P,9,1,4,4321,0,3,280.6000000014901,433,H
2023-04-04T13:19:35Z,usnnjdm9,serial-reaction-time,1,P,9,0,4,4321,0,3,554.5,433,H
2023-04-04T13:19:36Z,usnnjdm9,serial-reaction-time,1,R,9,1,5,4321,0,3,330.4000000022352,333,R
2023-04-04T13:19:36Z,usnnjdm9,serial-reaction-time,1,P,9,1,6,4321,0,2,377.80000000074506,332,H
2023-04-04T13:19:37Z,usnnjdm9,serial-reaction-time,1,R,9,1,7,4321,0,3,281.5,323,T
2023-04-04T13:19:37Z,usnnjdm9,serial-reaction-time,1,P,9,1,8,4321,0,1,360.1000000014901,231,H
2023-04-04T13:19:38Z,usnnjdm9,serial-reaction-time,1,R,9,1,9,4321,0,1,357,311,L
2023-04-04T13:19:38Z,usnnjdm9,serial-reaction-time,1,P,9,1,10,4321,0,4,343.0999999977648,114,H
2023-04-04T13:19:39Z,usnnjdm9,serial-reaction-time,1,R,9,1,11,4321,0,1,361.8999999985099,141,T
2023-04-04T13:19:39Z,usnnjdm9,serial-reaction-time,1,P,9,1,12,4321,0,3,347,413,H
2023-04-04T13:19:40Z,usnnjdm9,serial-reaction-time,1,R,9,1,13,4321,0,3,301.8999999985099,133,L
2023-04-04T13:19:40Z,usnnjdm9,serial-reaction-time,1,P,9,1,14,4321,0,2,423.0999999977648,332,H
2023-04-04T13:19:41Z,usnnjdm9,serial-reaction-time,1,R,9,1,15,4321,0,3,266.29999999701977,323,T
2023-04-04T13:19:41Z,usnnjdm9,serial-reaction-time,1,P,9,1,16,4321,0,1,376.1000000014901,231,H
2023-04-04T13:19:42Z,usnnjdm9,serial-reaction-time,NA,R,9,1,17,4321,0,2,354.5,312,H
2023-04-04T13:19:42Z,usnnjdm9,serial-reaction-time,1,R,9,0,17,4321,0,2,669,312,H
2023-04-04T13:19:43Z,usnnjdm9,serial-reaction-time,1,P,9,1,18,4321,0,4,371.80000000074506,124,H
2023-04-04T13:19:43Z,usnnjdm9,serial-reaction-time,1,R,9,1,19,4321,0,3,341.29999999701977,243,L
2023-04-04T13:19:44Z,usnnjdm9,serial-reaction-time,1,P,9,1,20,4321,0,3,323.30000000074506,433,H
2023-04-04T13:19:44Z,usnnjdm9,serial-reaction-time,1,R,9,1,21,4321,0,3,336.30000000074506,333,R
2023-04-04T13:19:45Z,usnnjdm9,serial-reaction-time,NA,P,9,1,22,4321,0,2,348.8999999985099,332,H
2023-04-04T13:19:45Z,usnnjdm9,serial-reaction-time,1,P,9,0,22,4321,0,2,452.8999999985099,332,H
2023-04-04T13:19:45Z,usnnjdm9,serial-reaction-time,1,R,9,1,23,4321,0,4,352.8999999985099,324,L
2023-04-04T13:19:46Z,usnnjdm9,serial-reaction-time,1,P,9,1,24,4321,0,1,480.19999999925494,241,H
2023-04-04T13:19:46Z,usnnjdm9,serial-reaction-time,1,R,9,1,25,4321,0,1,321.80000000074506,411,L
2023-04-04T13:19:47Z,usnnjdm9,serial-reaction-time,1,P,9,1,26,4321,0,4,394.4000000022352,114,H
2023-04-04T13:19:47Z,usnnjdm9,serial-reaction-time,1,R,9,1,27,4321,0,3,385.20000000298023,143,L
2023-04-04T13:19:48Z,usnnjdm9,serial-reaction-time,1,P,9,1,28,4321,0,3,290.3999999985099,433,H
2023-04-04T13:19:48Z,usnnjdm9,serial-reaction-time,1,R,9,1,29,4321,0,4,378.1000000014901,334,L
2023-04-04T13:19:49Z,usnnjdm9,serial-reaction-time,1,P,9,1,30,4321,0,2,365.69999999925494,342,H
2023-04-04T13:19:50Z,usnnjdm9,serial-reaction-time,1,R,9,1,31,4321,0,4,462.69999999925494,424,T
2023-04-04T13:19:50Z,usnnjdm9,serial-reaction-time,1,P,9,1,32,4321,0,1,329.5999999977648,241,H
2023-04-04T13:19:51Z,usnnjdm9,serial-reaction-time,1,R,9,1,33,4321,0,4,401,414,T
2023-04-04T13:19:51Z,usnnjdm9,serial-reaction-time,1,P,9,1,34,4321,0,4,362.1000000014901,144,H
2023-04-04T13:19:52Z,usnnjdm9,serial-reaction-time,1,R,9,1,35,4321,0,3,321.1000000014901,443,H
2023-04-04T13:19:52Z,usnnjdm9,serial-reaction-time,1,P,9,1,36,4321,0,3,391.5,433,H
2023-04-04T13:19:53Z,usnnjdm9,serial-reaction-time,NA,R,9,1,37,4321,0,1,315.1000000014901,331,L
2023-04-04T13:19:53Z,usnnjdm9,serial-reaction-time,1,R,9,0,37,4321,0,1,348.1000000014901,331,L
2023-04-04T13:19:53Z,usnnjdm9,serial-reaction-time,1,P,9,1,38,4321,0,2,396.29999999701977,312,H
2023-04-04T13:19:54Z,usnnjdm9,serial-reaction-time,1,R,9,1,39,4321,0,1,345.69999999925494,121,T
2023-04-04T13:19:54Z,usnnjdm9,serial-reaction-time,1,P,9,1,40,4321,0,1,304.4000000022352,211,H
2023-04-04T13:19:55Z,usnnjdm9,serial-reaction-time,1,R,9,1,41,4321,0,4,348.30000000074506,114,H
2023-04-04T13:19:55Z,usnnjdm9,serial-reaction-time,1,P,9,1,42,4321,0,4,276.1000000014901,144,H
2023-04-04T13:19:55Z,usnnjdm9,serial-reaction-time,NA,R,9,1,43,4321,0,3,307.70000000298023,443,H
2023-04-04T13:19:56Z,usnnjdm9,serial-reaction-time,1,R,9,0,43,4321,0,3,394.30000000074506,443,H
2023-04-04T13:19:56Z,usnnjdm9,serial-reaction-time,1,P,9,1,44,4321,0,3,273.4000000022352,433,H
2023-04-04T13:19:56Z,usnnjdm9,serial-reaction-time,1,R,9,1,45,4321,0,1,289.4000000022352,331,L
2023-04-04T13:19:57Z,usnnjdm9,serial-reaction-time,1,P,9,1,46,4321,0,2,453.19999999925494,312,H
2023-04-04T13:19:57Z,usnnjdm9,serial-reaction-time,1,R,9,1,47,4321,0,1,286.30000000074506,121,T
2023-04-04T13:19:58Z,usnnjdm9,serial-reaction-time,1,P,9,1,48,4321,0,1,331.5,211,H
2023-04-04T13:19:58Z,usnnjdm9,serial-reaction-time,1,R,9,1,49,4321,0,4,281.0999999977648,114,H
2023-04-04T13:19:59Z,usnnjdm9,serial-reaction-time,1,P,9,1,50,4321,0,4,323.70000000298023,144,H
2023-04-04T13:19:59Z,usnnjdm9,serial-reaction-time,1,R,9,1,51,4321,0,1,275.30000000074506,441,L
2023-04-04T13:20:00Z,usnnjdm9,serial-reaction-time,1,P,9,1,52,4321,0,3,375.1000000014901,413,H
2023-04-04T13:20:00Z,usnnjdm9,serial-reaction-time,1,R,9,1,53,4321,0,3,349.1000000014901,133,L
2023-04-04T13:20:01Z,usnnjdm9,serial-reaction-time,NA,P,9,1,54,4321,0,2,298.19999999925494,332,H
2023-04-04T13:20:01Z,usnnjdm9,serial-reaction-time,1,P,9,0,54,4321,0,2,553.3000000007451,332,H
2023-04-04T13:20:01Z,usnnjdm9,serial-reaction-time,NA,R,9,1,55,4321,0,3,257.1000000014901,323,T
2023-04-04T13:20:02Z,usnnjdm9,serial-reaction-time,1,R,9,0,55,4321,0,3,520.9000000022352,323,T
2023-04-04T13:20:02Z,usnnjdm9,serial-reaction-time,1,P,9,1,56,4321,0,1,398.19999999925494,231,H
2023-04-04T13:20:03Z,usnnjdm9,serial-reaction-time,1,R,9,1,57,4321,0,3,258.1000000014901,313,T
2023-04-04T13:20:03Z,usnnjdm9,serial-reaction-time,1,P,9,1,58,4321,0,4,391.19999999925494,134,H
2023-04-04T13:20:04Z,usnnjdm9,serial-reaction-time,1,R,9,1,59,4321,0,2,451.3999999985099,342,H
2023-04-04T13:20:04Z,usnnjdm9,serial-reaction-time,1,P,9,1,60,4321,0,3,420.3999999985099,423,H
2023-04-04T13:20:05Z,usnnjdm9,serial-reaction-time,1,R,9,1,61,4321,0,4,313.8999999985099,234,L
2023-04-04T13:20:05Z,usnnjdm9,serial-reaction-time,1,P,9,1,62,4321,0,2,373.9000000022352,342,H
2023-04-04T13:20:06Z,usnnjdm9,serial-reaction-time,1,R,9,1,63,4321,0,4,318.5,424,T
2023-04-04T13:20:06Z,usnnjdm9,serial-reaction-time,1,P,9,1,64,4321,0,1,410.6000000014901,241,H
2023-04-04T13:20:07Z,usnnjdm9,serial-reaction-time,1,R,9,1,65,4321,0,3,417.8999999985099,413,H
2023-04-04T13:20:07Z,usnnjdm9,serial-reaction-time,1,P,9,1,66,4321,0,4,280.80000000074506,134,H
2023-04-04T13:20:08Z,usnnjdm9,serial-reaction-time,1,R,9,1,67,4321,0,2,527.6000000014901,342,H
2023-04-04T13:20:09Z,usnnjdm9,serial-reaction-time,1,P,9,1,68,4321,0,3,369,423,H
2023-04-04T13:20:09Z,usnnjdm9,serial-reaction-time,1,R,9,1,69,4321,0,3,456.30000000074506,233,L
2023-04-04T13:20:10Z,usnnjdm9,serial-reaction-time,1,P,9,1,70,4321,0,2,455.79999999701977,332,H
2023-04-04T13:20:10Z,usnnjdm9,serial-reaction-time,1,R,9,1,71,4321,0,4,385.80000000074506,324,L
2023-04-04T13:20:11Z,usnnjdm9,serial-reaction-time,1,P,9,1,72,4321,0,1,411.3999999985099,241,H
2023-04-04T13:20:12Z,usnnjdm9,serial-reaction-time,1,R,9,1,73,4321,0,4,403.0999999977648,414,T
2023-04-04T13:20:12Z,usnnjdm9,serial-reaction-time,1,P,9,1,74,4321,0,4,358.0999999977648,144,H
2023-04-04T13:20:13Z,usnnjdm9,serial-reaction-time,1,R,9,1,75,4321,0,2,511.5,442,L
2023-04-04T13:20:13Z,usnnjdm9,serial-reaction-time,1,P,9,1,76,4321,0,3,397.19999999925494,423,H
2023-04-04T13:20:14Z,usnnjdm9,serial-reaction-time,1,R,9,1,77,4321,0,3,348,233,L
2023-04-04T13:20:14Z,usnnjdm9,serial-reaction-time,1,P,9,1,78,4321,0,2,426.5,332,H
2023-04-04T13:20:15Z,usnnjdm9,serial-reaction-time,1,R,9,1,79,4321,0,2,424,322,H
2023-04-04T13:20:15Z,usnnjdm9,serial-reaction-time,1,P,9,1,80,4321,0,1,392.19999999925494,221,H
2023-04-04T13:20:20Z,usnnjdm9,html-keyboard-response,NA,NA,NA,NA,NA,NA,NA,NA,NA,NA,NA
2023-04-04T13:20:31Z,usnnjdm9,html-keyboard-response,NA,NA,NA,NA,NA,NA,NA,NA,NA,NA,NA
2023-04-04T13:20:33Z,usnnjdm9,serial-reaction-time,1,R,10,1,1,4321,0,3,407.30000000074506,3,X
2023-04-04T13:20:33Z,usnnjdm9,serial-reaction-time,1,P,10,1,2,4321,0,4,234.10000000149012,34,X
2023-04-04T13:20:34Z,usnnjdm9,serial-reaction-time,1,R,10,1,3,4321,0,3,264.0999999977648,343,T
2023-04-04T13:20:34Z,usnnjdm9,serial-reaction-time,NA,P,10,1,4,4321,0,3,264.5,433,H
2023-04-04T13:20:34Z,usnnjdm9,serial-reaction-time,1,P,10,0,4,4321,0,3,316.5999999977648,433,H
2023-04-04T13:20:34Z,usnnjdm9,serial-reaction-time,1,R,10,1,5,4321,0,4,329,334,L
2023-04-04T13:20:35Z,usnnjdm9,serial-reaction-time,1,P,10,1,6,4321,0,2,474.79999999701977,342,H
2023-04-04T13:20:36Z,usnnjdm9,serial-reaction-time,1,R,10,1,7,4321,0,3,386,423,H
2023-04-04T13:20:36Z,usnnjdm9,serial-reaction-time,1,P,10,1,8,4321,0,1,439.79999999701977,231,H
2023-04-04T13:20:37Z,usnnjdm9,serial-reaction-time,1,R,10,1,9,4321,0,3,239.09999999776483,313,T
2023-04-04T13:20:37Z,usnnjdm9,serial-reaction-time,1,P,10,1,10,4321,0,4,309,134,H
2023-04-04T13:20:38Z,usnnjdm9,serial-reaction-time,1,R,10,1,11,4321,0,1,394.69999999925494,341,L
2023-04-04T13:20:38Z,usnnjdm9,serial-reaction-time,NA,P,10,1,12,4321,0,3,233.40000000223517,413,H
2023-04-04T13:20:38Z,usnnjdm9,serial-reaction-time,1,P,10,0,12,4321,0,3,453.1000000014901,413,H
2023-04-04T13:20:39Z,usnnjdm9,serial-reaction-time,1,R,10,1,13,4321,0,1,343,131,T
2023-04-04T13:20:40Z,usnnjdm9,serial-reaction-time,1,P,10,1,14,4321,0,2,633.1000000014901,312,H
2023-04-04T13:20:40Z,usnnjdm9,serial-reaction-time,NA,R,10,1,15,4321,0,3,357.0999999977648,123,L
2023-04-04T13:20:40Z,usnnjdm9,serial-reaction-time,1,R,10,0,15,4321,0,3,724.7999999970198,123,L
2023-04-04T13:20:41Z,usnnjdm9,serial-reaction-time,NA,P,10,1,16,4321,0,1,553.1000000014901,231,H
2023-04-04T13:20:41Z,usnnjdm9,serial-reaction-time,1,P,10,0,16,4321,0,1,807.5000000037253,231,H
2023-04-04T13:20:42Z,usnnjdm9,serial-reaction-time,1,R,10,1,17,4321,0,3,534.7999999970198,313,T
2023-04-04T13:20:43Z,usnnjdm9,serial-reaction-time,1,P,10,1,18,4321,0,4,330.69999999925494,134,H
2023-04-04T13:20:43Z,usnnjdm9,serial-reaction-time,1,R,10,1,19,4321,0,1,383.3999999985099,341,L
2023-04-04T13:20:44Z,usnnjdm9,serial-reaction-time,1,P,10,1,20,4321,0,3,300.69999999925494,413,H
2023-04-04T13:20:44Z,usnnjdm9,serial-reaction-time,1,R,10,1,21,4321,0,4,330,134,H
2023-04-04T13:20:45Z,usnnjdm9,serial-reaction-time,1,P,10,1,22,4321,0,2,639.8999999985099,342,H
2023-04-04T13:20:45Z,usnnjdm9,serial-reaction-time,1,R,10,1,23,4321,0,1,470.5,421,L
2023-04-04T13:20:46Z,usnnjdm9,serial-reaction-time,1,P,10,1,24,4321,0,1,346.29999999701977,211,H
2023-04-04T13:20:46Z,usnnjdm9,serial-reaction-time,NA,R,10,1,25,4321,0,2,403.19999999925494,112,L
2023-04-04T13:20:47Z,usnnjdm9,serial-reaction-time,1,R,10,0,25,4321,0,2,666,112,L
2023-04-04T13:20:47Z,usnnjdm9,serial-reaction-time,1,P,10,1,26,4321,0,4,345.69999999925494,124,H
2023-04-04T13:20:48Z,usnnjdm9,serial-reaction-time,1,R,10,1,27,4321,0,4,794.8000000007451,244,L
2023-04-04T13:20:49Z,usnnjdm9,serial-reaction-time,1,P,10,1,28,4321,0,3,508.1000000014901,443,H
2023-04-04T13:20:49Z,usnnjdm9,serial-reaction-time,1,R,10,1,29,4321,0,4,393,434,T
2023-04-04T13:20:50Z,usnnjdm9,serial-reaction-time,1,P,10,1,30,4321,0,2,395.5,342,H
2023-04-04T13:20:51Z,usnnjdm9,serial-reaction-time,1,R,10,1,31,4321,0,3,421.70000000298023,423,H
2023-04-04T13:20:51Z,usnnjdm9,serial-reaction-time,1,P,10,1,32,4321,0,1,469,231,H
2023-04-04T13:20:52Z,usnnjdm9,serial-reaction-time,1,R,10,1,33,4321,0,3,304.19999999925494,313,T
2023-04-04T13:20:52Z,usnnjdm9,serial-reaction-time,1,P,10,1,34,4321,0,4,289.30000000074506,134,H
2023-04-04T13:20:53Z,usnnjdm9,serial-reaction-time,1,R,10,1,35,4321,0,3,334.5,343,T
2023-04-04T13:20:53Z,usnnjdm9,serial-reaction-time,1,P,10,1,36,4321,0,3,349.3999999985099,433,H
2023-04-04T13:20:53Z,usnnjdm9,serial-reaction-time,1,R,10,1,37,4321,0,3,306.4000000022352,333,R
2023-04-04T13:20:54Z,usnnjdm9,serial-reaction-time,1,P,10,1,38,4321,0,2,357.80000000074506,332,H
2023-04-04T13:20:54Z,usnnjdm9,serial-reaction-time,1,R,10,1,39,4321,0,3,315.0999999977648,323,T
2023-04-04T13:20:55Z,usnnjdm9,serial-reaction-time,1,P,10,1,40,4321,0,1,348.8999999985099,231,H
2023-04-04T13:20:55Z,usnnjdm9,serial-reaction-time,1,R,10,1,41,4321,0,3,319.5999999977648,313,T
2023-04-04T13:20:56Z,usnnjdm9,serial-reaction-time,1,P,10,1,42,4321,0,4,292.80000000074506,134,H
2023-04-04T13:20:56Z,usnnjdm9,serial-reaction-time,1,R,10,1,43,4321,0,1,383.5,341,L
2023-04-04T13:20:57Z,usnnjdm9,serial-reaction-time,1,P,10,1,44,4321,0,3,317.69999999925494,413,H
2023-04-04T13:20:57Z,usnnjdm9,serial-reaction-time,1,R,10,1,45,4321,0,3,325,133,L
2023-04-04T13:20:58Z,usnnjdm9,serial-reaction-time,NA,P,10,1,46,4321,0,2,350.19999999925494,332,H
2023-04-04T13:20:58Z,usnnjdm9,serial-reaction-time,1,P,10,0,46,4321,0,2,586.6999999992549,332,H
2023-04-04T13:20:59Z,usnnjdm9,serial-reaction-time,1,R,10,1,47,4321,0,2,392.9000000022352,322,H
2023-04-04T13:20:59Z,usnnjdm9,serial-reaction-time,1,P,10,1,48,4321,0,1,385.0999999977648,221,H
2023-04-04T13:21:00Z,usnnjdm9,serial-reaction-time,1,R,10,1,49,4321,0,2,384.5,212,T
2023-04-04T13:21:00Z,usnnjdm9,serial-reaction-time,1,P,10,1,50,4321,0,4,370.80000000074506,124,H
2023-04-04T13:21:01Z,usnnjdm9,serial-reaction-time,1,R,10,1,51,4321,0,3,280.5,243,L
2023-04-04T13:21:01Z,usnnjdm9,serial-reaction-time,1,P,10,1,52,4321,0,3,298.5999999977648,433,H
2023-04-04T13:21:02Z,usnnjdm9,serial-reaction-time,1,R,10,1,53,4321,0,3,263.80000000074506,333,R
2023-04-04T13:21:02Z,usnnjdm9,serial-reaction-time,1,P,10,1,54,4321,0,2,404.1000000014901,332,H
2023-04-04T13:21:03Z,usnnjdm9,serial-reaction-time,1,R,10,1,55,4321,0,4,378.19999999925494,324,L
2023-04-04T13:21:03Z,usnnjdm9,serial-reaction-time,1,P,10,1,56,4321,0,1,292.9000000022352,241,H
2023-04-04T13:21:04Z,usnnjdm9,serial-reaction-time,1,R,10,1,57,4321,0,1,407.19999999925494,411,L
2023-04-04T13:21:04Z,usnnjdm9,serial-reaction-time,1,P,10,1,58,4321,0,4,402.3999999985099,114,H
2023-04-04T13:21:05Z,usnnjdm9,serial-reaction-time,1,R,10,1,59,4321,0,1,319.3999999985099,141,T
2023-04-04T13:21:05Z,usnnjdm9,serial-reaction-time,NA,P,10,1,60,4321,0,3,293.5,413,H
2023-04-04T13:21:05Z,usnnjdm9,serial-reaction-time,1,P,10,0,60,4321,0,3,533.9000000022352,413,H
2023-04-04T13:21:06Z,usnnjdm9,serial-reaction-time,1,R,10,1,61,4321,0,1,339.1000000014901,131,T
2023-04-04T13:21:07Z,usnnjdm9,serial-reaction-time,1,P,10,1,62,4321,0,2,627.6000000014901,312,H
2023-04-04T13:21:07Z,usnnjdm9,serial-reaction-time,1,R,10,1,63,4321,0,2,329.80000000074506,122,L
2023-04-04T13:21:08Z,usnnjdm9,serial-reaction-time,1,P,10,1,64,4321,0,1,378.30000000074506,221,H
2023-04-04T13:21:08Z,usnnjdm9,serial-reaction-time,1,R,10,1,65,4321,0,4,398.80000000074506,214,L
2023-04-04T13:21:09Z,usnnjdm9,serial-reaction-time,1,P,10,1,66,4321,0,4,380.8999999985099,144,H
2023-04-04T13:21:09Z,usnnjdm9,serial-reaction-time,1,R,10,1,67,4321,0,1,307.5,441,L
2023-04-04T13:21:10Z,usnnjdm9,serial-reaction-time,NA,P,10,1,68,4321,0,3,295.19999999925494,413,H
2023-04-04T13:21:10Z,usnnjdm9,serial-reaction-time,1,P,10,0,68,4321,0,3,564.8000000007451,413,H
2023-04-04T13:21:10Z,usnnjdm9,serial-reaction-time,NA,R,10,1,69,4321,0,2,412.5999999977648,132,L
2023-04-04T13:21:11Z,usnnjdm9,serial-reaction-time,1,R,10,0,69,4321,0,2,494.4999999962747,132,L
2023-04-04T13:21:11Z,usnnjdm9,serial-reaction-time,1,P,10,1,70,4321,0,2,331.0999999977648,322,H
2023-04-04T13:21:12Z,usnnjdm9,serial-reaction-time,1,R,10,1,71,4321,0,2,329,222,R
2023-04-04T13:21:12Z,usnnjdm9,serial-reaction-time,1,P,10,1,72,4321,0,1,345.3999999985099,221,H
2023-04-04T13:21:13Z,usnnjdm9,serial-reaction-time,1,R,10,1,73,4321,0,3,355.19999999925494,213,L
2023-04-04T13:21:13Z,usnnjdm9,serial-reaction-time,1,P,10,1,74,4321,0,4,369.19999999925494,134,H
2023-04-04T13:21:14Z,usnnjdm9,serial-reaction-time,NA,R,10,1,75,4321,0,3,309.5,343,T
2023-04-04T13:21:14Z,usnnjdm9,serial-reaction-time,1,R,10,0,75,4321,0,3,615.7000000029802,343,T
2023-04-04T13:21:14Z,usnnjdm9,serial-reaction-time,1,P,10,1,76,4321,0,3,298.69999999925494,433,H
2023-04-04T13:21:15Z,usnnjdm9,serial-reaction-time,1,R,10,1,77,4321,0,4,342.19999999925494,334,L
2023-04-04T13:21:15Z,usnnjdm9,serial-reaction-time,1,P,10,1,78,4321,0,2,418,342,H
