datetime,id,trial_type,correct,p_or_r,block,first_response,trial_number,sequence,is_practice,correct_pos,cumulative_rt,actual_triplet,triplet_type
2023-04-11T21:53:19Z,qh2z8vvu,fullscreen,NA,NA,NA,NA,NA,NA,NA,NA,NA,NA,NA
2023-04-11T21:53:58Z,qh2z8vvu,instructions,NA,NA,NA,NA,NA,NA,NA,NA,NA,NA,NA
2023-04-11T21:54:01Z,qh2z8vvu,html-keyboard-response,NA,NA,NA,NA,NA,NA,NA,NA,NA,NA,NA
2023-04-11T21:54:03Z,qh2z8vvu,serial-reaction-time,1,R,1,1,1,2314,1,2,864.8999999761581,2,X
2023-04-11T21:54:04Z,qh2z8vvu,serial-reaction-time,1,R,1,1,2,2314,1,1,678.5,21,X
2023-04-11T21:54:05Z,qh2z8vvu,serial-reaction-time,NA,R,1,1,3,2314,1,3,501,213,X
2023-04-11T21:54:05Z,qh2z8vvu,serial-reaction-time,1,R,1,0,3,2314,1,3,1304.699999988079,213,X
2023-04-11T21:54:06Z,qh2z8vvu,serial-reaction-time,1,R,1,1,4,2314,1,4,538.8999999761581,134,X
2023-04-11T21:54:07Z,qh2z8vvu,serial-reaction-time,1,R,1,1,5,2314,1,4,864,344,X
2023-04-11T21:54:08Z,qh2z8vvu,serial-reaction-time,1,R,1,1,6,2314,1,3,654.6999999880791,443,X
2023-04-11T21:54:09Z,qh2z8vvu,serial-reaction-time,1,R,1,1,7,2314,1,1,551.2000000476837,431,X
2023-04-11T21:54:09Z,qh2z8vvu,serial-reaction-time,1,R,1,1,8,2314,1,2,703.5,312,X
2023-04-11T21:54:10Z,qh2z8vvu,serial-reaction-time,1,R,1,1,9,2314,1,3,812.5999999642372,123,X
2023-04-11T21:54:11Z,qh2z8vvu,serial-reaction-time,1,R,1,1,10,2314,1,4,539.6999999880791,234,X
2023-04-11T21:54:12Z,qh2z8vvu,serial-reaction-time,1,R,1,1,11,2314,1,4,549.9000000357628,344,X
2023-04-11T21:54:12Z,qh2z8vvu,serial-reaction-time,1,R,1,1,12,2314,1,1,442.5999999642372,441,X
2023-04-11T21:54:13Z,qh2z8vvu,serial-reaction-time,1,R,1,1,13,2314,1,3,572.0999999642372,413,X
2023-04-11T21:54:14Z,qh2z8vvu,serial-reaction-time,1,R,1,1,14,2314,1,3,473.300000011921,133,X
2023-04-11T21:54:14Z,qh2z8vvu,serial-reaction-time,1,R,1,1,15,2314,1,1,435.5999999642372,331,X
2023-04-11T21:54:15Z,qh2z8vvu,serial-reaction-time,1,R,1,1,16,2314,1,4,438.5999999642372,314,X
2023-04-11T21:54:15Z,qh2z8vvu,serial-reaction-time,1,R,1,1,17,2314,1,4,422.2999999523163,144,X
2023-04-11T21:54:16Z,qh2z8vvu,serial-reaction-time,1,R,1,1,18,2314,1,1,415.9000000357628,441,X
2023-04-11T21:54:17Z,qh2z8vvu,serial-reaction-time,1,R,1,1,19,2314,1,2,735.7999999523163,412,X
2023-04-11T21:54:17Z,qh2z8vvu,serial-reaction-time,1,R,1,1,20,2314,1,2,457.5999999642372,122,X
2023-04-11T21:54:18Z,qh2z8vvu,serial-reaction-time,1,R,1,1,21,2314,1,4,439.800000011921,224,X
2023-04-11T21:54:18Z,qh2z8vvu,serial-reaction-time,1,R,1,1,22,2314,1,4,451.300000011921,244,X
2023-04-11T21:54:19Z,qh2z8vvu,serial-reaction-time,1,R,1,1,23,2314,1,1,445.5,441,X
2023-04-11T21:54:20Z,qh2z8vvu,serial-reaction-time,1,R,1,1,24,2314,1,4,496.0999999642372,414,X
2023-04-11T21:54:20Z,qh2z8vvu,serial-reaction-time,1,R,1,1,25,2314,1,2,522.6999999880791,142,X
2023-04-11T21:54:21Z,qh2z8vvu,serial-reaction-time,1,R,1,1,26,2314,1,2,391.10000002384186,422,X
2023-04-11T21:54:21Z,qh2z8vvu,serial-reaction-time,1,R,1,1,27,2314,1,4,405.5,224,X
2023-04-11T21:54:22Z,qh2z8vvu,serial-reaction-time,1,R,1,1,28,2314,1,4,499.4000000357628,244,X
2023-04-11T21:54:22Z,qh2z8vvu,serial-reaction-time,1,R,1,1,29,2314,1,4,357.19999998807907,444,X
2023-04-11T21:54:23Z,qh2z8vvu,serial-reaction-time,1,R,1,1,30,2314,1,4,349.30000001192093,444,X
2023-04-11T21:54:23Z,qh2z8vvu,serial-reaction-time,1,R,1,1,31,2314,1,2,398.4000000357628,442,X
2023-04-11T21:54:24Z,qh2z8vvu,serial-reaction-time,1,R,1,1,32,2314,1,4,349.69999998807907,424,X
2023-04-11T21:54:24Z,qh2z8vvu,serial-reaction-time,NA,R,1,1,33,2314,1,3,301,243,X
2023-04-11T21:54:25Z,qh2z8vvu,serial-reaction-time,NA,R,1,0,33,2314,1,3,761.0999999642372,243,X
2023-04-11T21:54:25Z,qh2z8vvu,serial-reaction-time,1,R,1,0,33,2314,1,3,876.7999999523163,243,X
2023-04-11T21:54:26Z,qh2z8vvu,serial-reaction-time,1,R,1,1,34,2314,1,2,1249.699999988079,432,X
2023-04-11T21:54:27Z,qh2z8vvu,serial-reaction-time,1,R,1,1,35,2314,1,2,383.199999988079,322,X
2023-04-11T21:54:27Z,qh2z8vvu,serial-reaction-time,1,R,1,1,36,2314,1,2,319.30000001192093,222,X
2023-04-11T21:54:28Z,qh2z8vvu,serial-reaction-time,NA,R,1,1,37,2314,1,3,605.3000000119209,223,X
2023-04-11T21:54:28Z,qh2z8vvu,serial-reaction-time,1,R,1,0,37,2314,1,3,875.1000000238419,223,X
2023-04-11T21:54:31Z,qh2z8vvu,serial-reaction-time,1,R,1,1,38,2314,1,4,2831.399999976158,234,X
2023-04-11T21:54:32Z,qh2z8vvu,serial-reaction-time,1,R,1,1,39,2314,1,2,699,342,X
2023-04-11T21:54:33Z,qh2z8vvu,serial-reaction-time,1,R,1,1,40,2314,1,2,321.89999997615814,422,X
2023-04-11T21:54:33Z,qh2z8vvu,serial-reaction-time,1,R,1,1,41,2314,1,1,461.60000002384186,221,X
2023-04-11T21:54:34Z,qh2z8vvu,serial-reaction-time,1,R,1,1,42,2314,1,1,310.10000002384186,211,X
2023-04-11T21:54:34Z,qh2z8vvu,serial-reaction-time,1,R,1,1,43,2314,1,4,534.8999999761581,114,X
2023-04-11T21:54:35Z,qh2z8vvu,serial-reaction-time,1,R,1,1,44,2314,1,3,451.300000011921,143,X
2023-04-11T21:54:35Z,qh2z8vvu,serial-reaction-time,1,R,1,1,45,2314,1,3,436.699999988079,433,X
2023-04-11T21:54:36Z,qh2z8vvu,serial-reaction-time,1,R,1,1,46,2314,1,3,397.10000002384186,333,X
2023-04-11T21:54:37Z,qh2z8vvu,serial-reaction-time,1,R,1,1,47,2314,1,1,416.39999997615814,331,X
2023-04-11T21:54:37Z,qh2z8vvu,serial-reaction-time,1,R,1,1,48,2314,1,4,568.5,314,X
2023-04-11T21:54:38Z,qh2z8vvu,serial-reaction-time,NA,R,1,1,49,2314,1,3,843.8999999761581,143,X
2023-04-11T21:54:39Z,qh2z8vvu,serial-reaction-time,1,R,1,0,49,2314,1,3,1240.5999999642372,143,X
2023-04-11T21:54:39Z,qh2z8vvu,serial-reaction-time,1,R,1,1,50,2314,1,4,710.7999999523163,434,X
2023-04-11T21:54:40Z,qh2z8vvu,serial-reaction-time,1,R,1,1,51,2314,1,2,609.6000000238419,342,X
2023-04-11T21:54:41Z,qh2z8vvu,serial-reaction-time,1,R,1,1,52,2314,1,3,708,423,X
2023-04-11T21:54:43Z,qh2z8vvu,serial-reaction-time,1,R,1,1,53,2314,1,4,1585.5,234,X
2023-04-11T21:54:43Z,qh2z8vvu,serial-reaction-time,1,R,1,1,54,2314,1,1,426,341,X
2023-04-11T21:54:44Z,qh2z8vvu,serial-reaction-time,1,R,1,1,55,2314,1,4,662,414,X
2023-04-11T21:54:45Z,qh2z8vvu,serial-reaction-time,1,R,1,1,56,2314,1,1,528.1000000238419,141,X
2023-04-11T21:54:45Z,qh2z8vvu,serial-reaction-time,1,R,1,1,57,2314,1,2,618.1999999880791,412,X
2023-04-11T21:54:46Z,qh2z8vvu,serial-reaction-time,1,R,1,1,58,2314,1,4,692.3000000119209,124,X
2023-04-11T21:54:47Z,qh2z8vvu,serial-reaction-time,1,R,1,1,59,2314,1,1,384.699999988079,241,X
2023-04-11T21:54:48Z,qh2z8vvu,serial-reaction-time,1,R,1,1,60,2314,1,2,629.8000000119209,412,X
2023-04-11T21:54:48Z,qh2z8vvu,serial-reaction-time,1,R,1,1,61,2314,1,4,460.10000002384186,124,X
2023-04-11T21:54:49Z,qh2z8vvu,serial-reaction-time,1,R,1,1,62,2314,1,2,554.9000000357628,242,X
2023-04-11T21:54:49Z,qh2z8vvu,serial-reaction-time,1,R,1,1,63,2314,1,2,380.5,422,X
2023-04-11T21:54:50Z,qh2z8vvu,serial-reaction-time,1,R,1,1,64,2314,1,3,584.6999999880791,223,X
2023-04-11T21:54:51Z,qh2z8vvu,serial-reaction-time,1,R,1,1,65,2314,1,2,433.89999997615814,232,X
2023-04-11T21:54:51Z,qh2z8vvu,serial-reaction-time,1,R,1,1,66,2314,1,3,374.60000002384186,323,X
2023-04-11T21:54:52Z,qh2z8vvu,serial-reaction-time,NA,R,1,1,67,2314,1,1,403.800000011921,231,X
2023-04-11T21:54:52Z,qh2z8vvu,serial-reaction-time,1,R,1,0,67,2314,1,1,696.1999999880791,231,X
2023-04-11T21:54:53Z,qh2z8vvu,serial-reaction-time,1,R,1,1,68,2314,1,1,407,311,X
2023-04-11T21:54:53Z,qh2z8vvu,serial-reaction-time,1,R,1,1,69,2314,1,2,511.10000002384186,112,X
2023-04-11T21:54:54Z,qh2z8vvu,serial-reaction-time,1,R,1,1,70,2314,1,1,455.5,121,X
2023-04-11T21:54:54Z,qh2z8vvu,serial-reaction-time,1,R,1,1,71,2314,1,4,519.5999999642372,214,X
2023-04-11T21:54:55Z,qh2z8vvu,serial-reaction-time,1,R,1,1,72,2314,1,3,684.3999999761581,143,X
2023-04-11T21:54:56Z,qh2z8vvu,serial-reaction-time,1,R,1,1,73,2314,1,2,517,432,X
2023-04-11T21:54:56Z,qh2z8vvu,serial-reaction-time,1,R,1,1,74,2314,1,2,425.800000011921,322,X
2023-04-11T21:54:57Z,qh2z8vvu,serial-reaction-time,1,R,1,1,75,2314,1,3,493.5,223,X
2023-04-11T21:54:58Z,qh2z8vvu,serial-reaction-time,1,R,1,1,76,2314,1,2,339.30000001192093,232,X
2023-04-11T21:54:58Z,qh2z8vvu,serial-reaction-time,1,R,1,1,77,2314,1,3,362.89999997615814,323,X
2023-04-11T21:54:59Z,qh2z8vvu,serial-reaction-time,1,R,1,1,78,2314,1,4,442.300000011921,234,X
2023-04-11T21:54:59Z,qh2z8vvu,serial-reaction-time,1,R,1,1,79,2314,1,3,682.1999999880791,343,X
2023-04-11T21:55:00Z,qh2z8vvu,serial-reaction-time,1,R,1,1,80,2314,1,1,425,431,X
2023-04-11T21:55:05Z,qh2z8vvu,html-keyboard-response,NA,NA,NA,NA,NA,NA,NA,NA,NA,NA,NA
2023-04-11T21:55:08Z,qh2z8vvu,html-keyboard-response,NA,NA,NA,NA,NA,NA,NA,NA,NA,NA,NA
2023-04-11T21:55:10Z,qh2z8vvu,serial-reaction-time,1,R,2,1,1,2314,1,4,390.10000002384186,4,X
2023-04-11T21:55:10Z,qh2z8vvu,serial-reaction-time,1,R,2,1,2,2314,1,3,597.6000000238419,43,X
2023-04-11T21:55:11Z,qh2z8vvu,serial-reaction-time,1,R,2,1,3,2314,1,4,508.5,434,X
2023-04-11T21:55:12Z,qh2z8vvu,serial-reaction-time,1,R,2,1,4,2314,1,1,453,341,X
2023-04-11T21:55:12Z,qh2z8vvu,serial-reaction-time,1,R,2,1,5,2314,1,3,577.1000000238419,413,X
2023-04-11T21:55:13Z,qh2z8vvu,serial-reaction-time,1,R,2,1,6,2314,1,4,434.10000002384186,134,X
2023-04-11T21:55:14Z,qh2z8vvu,serial-reaction-time,1,R,2,1,7,2314,1,4,446.5,344,X
2023-04-11T21:55:14Z,qh2z8vvu,serial-reaction-time,1,R,2,1,8,2314,1,2,474.4000000357628,442,X
2023-04-11T21:55:15Z,qh2z8vvu,serial-reaction-time,1,R,2,1,9,2314,1,4,499.39999997615814,424,X
2023-04-11T21:55:15Z,qh2z8vvu,serial-reaction-time,1,R,2,1,10,2314,1,3,573.1999999880791,243,X
2023-04-11T21:55:16Z,qh2z8vvu,serial-reaction-time,1,R,2,1,11,2314,1,3,368.5,433,X
2023-04-11T21:55:16Z,qh2z8vvu,serial-reaction-time,1,R,2,1,12,2314,1,3,368.2000000476837,333,X
2023-04-11T21:55:17Z,qh2z8vvu,serial-reaction-time,1,R,2,1,13,2314,1,1,377.60000002384186,331,X
2023-04-11T21:55:17Z,qh2z8vvu,serial-reaction-time,1,R,2,1,14,2314,1,3,396.5,313,X
2023-04-11T21:55:18Z,qh2z8vvu,serial-reaction-time,1,R,2,1,15,2314,1,3,413.7999999523163,133,X
2023-04-11T21:55:19Z,qh2z8vvu,serial-reaction-time,1,R,2,1,16,2314,1,3,376.9000000357628,333,X
2023-04-11T21:55:19Z,qh2z8vvu,serial-reaction-time,1,R,2,1,17,2314,1,1,361.9000000357628,331,X
2023-04-11T21:55:20Z,qh2z8vvu,serial-reaction-time,1,R,2,1,18,2314,1,1,376.0999999642372,311,X
2023-04-11T21:55:20Z,qh2z8vvu,serial-reaction-time,1,R,2,1,19,2314,1,4,360.19999998807907,114,X
2023-04-11T21:55:21Z,qh2z8vvu,serial-reaction-time,1,R,2,1,20,2314,1,3,488.9000000357628,143,X
2023-04-11T21:55:21Z,qh2z8vvu,serial-reaction-time,1,R,2,1,21,2314,1,4,446.10000002384186,434,X
2023-04-11T21:55:22Z,qh2z8vvu,serial-reaction-time,1,R,2,1,22,2314,1,4,503,344,X
2023-04-11T21:55:22Z,qh2z8vvu,serial-reaction-time,1,R,2,1,23,2314,1,1,419.800000011921,441,X
2023-04-11T21:55:23Z,qh2z8vvu,serial-reaction-time,1,R,2,1,24,2314,1,4,566.5,414,X
2023-04-11T21:55:24Z,qh2z8vvu,serial-reaction-time,NA,R,2,1,25,2314,1,2,395.89999997615814,142,X
2023-04-11T21:55:24Z,qh2z8vvu,serial-reaction-time,1,R,2,0,25,2314,1,2,649.8999999761581,142,X
2023-04-11T21:55:25Z,qh2z8vvu,serial-reaction-time,1,R,2,1,26,2314,1,1,520.8000000119209,421,X
2023-04-11T21:55:25Z,qh2z8vvu,serial-reaction-time,1,R,2,1,27,2314,1,1,390.39999997615814,211,X
2023-04-11T21:55:26Z,qh2z8vvu,serial-reaction-time,1,R,2,1,28,2314,1,1,381.60000002384186,111,X
2023-04-11T21:55:26Z,qh2z8vvu,serial-reaction-time,1,R,2,1,29,2314,1,4,503.39999997615814,114,X
2023-04-11T21:55:27Z,qh2z8vvu,serial-reaction-time,1,R,2,1,30,2314,1,4,369.60000002384186,144,X
2023-04-11T21:55:27Z,qh2z8vvu,serial-reaction-time,1,R,2,1,31,2314,1,4,383.5999999642372,444,X
2023-04-11T21:55:28Z,qh2z8vvu,serial-reaction-time,1,R,2,1,32,2314,1,1,388.60000002384186,441,X
2023-04-11T21:55:28Z,qh2z8vvu,serial-reaction-time,1,R,2,1,33,2314,1,1,286.5,411,X
2023-04-11T21:55:29Z,qh2z8vvu,serial-reaction-time,1,R,2,1,34,2314,1,1,361,111,X
2023-04-11T21:55:29Z,qh2z8vvu,serial-reaction-time,1,R,2,1,35,2314,1,4,472.5,114,X
2023-04-11T21:55:30Z,qh2z8vvu,serial-reaction-time,1,R,2,1,36,2314,1,4,352.69999998807907,144,X
2023-04-11T21:55:30Z,qh2z8vvu,serial-reaction-time,1,R,2,1,37,2314,1,4,318.2999999523163,444,X
2023-04-11T21:55:31Z,qh2z8vvu,serial-reaction-time,1,R,2,1,38,2314,1,3,509.7999999523163,443,X
2023-04-11T21:55:31Z,qh2z8vvu,serial-reaction-time,1,R,2,1,39,2314,1,4,319.10000002384186,434,X
2023-04-11T21:55:32Z,qh2z8vvu,serial-reaction-time,1,R,2,1,40,2314,1,2,581.8000000119209,342,X
2023-04-11T21:55:33Z,qh2z8vvu,serial-reaction-time,1,R,2,1,41,2314,1,3,354.5999999642372,423,X
2023-04-11T21:55:33Z,qh2z8vvu,serial-reaction-time,1,R,2,1,42,2314,1,2,347.5,232,X
2023-04-11T21:55:34Z,qh2z8vvu,serial-reaction-time,1,R,2,1,43,2314,1,4,430.5,324,X
2023-04-11T21:55:34Z,qh2z8vvu,serial-reaction-time,1,R,2,1,44,2314,1,2,556.7999999523163,242,X
2023-04-11T21:55:35Z,qh2z8vvu,serial-reaction-time,1,R,2,1,45,2314,1,3,540.7000000476837,423,X
2023-04-11T21:55:35Z,qh2z8vvu,serial-reaction-time,1,R,2,1,46,2314,1,2,451.800000011921,232,X
2023-04-11T21:55:36Z,qh2z8vvu,serial-reaction-time,1,R,2,1,47,2314,1,4,495.60000002384186,324,X
2023-04-11T21:55:37Z,qh2z8vvu,serial-reaction-time,1,R,2,1,48,2314,1,4,439.60000002384186,244,X
2023-04-11T21:55:37Z,qh2z8vvu,serial-reaction-time,1,R,2,1,49,2314,1,1,447.199999988079,441,X
2023-04-11T21:55:38Z,qh2z8vvu,serial-reaction-time,1,R,2,1,50,2314,1,4,407.699999988079,414,X
2023-04-11T21:55:38Z,qh2z8vvu,serial-reaction-time,1,R,2,1,51,2314,1,1,348.19999998807907,141,X
2023-04-11T21:55:39Z,qh2z8vvu,serial-reaction-time,1,R,2,1,52,2314,1,4,375.300000011921,414,X
2023-04-11T21:55:40Z,qh2z8vvu,serial-reaction-time,1,R,2,1,53,2314,1,3,602.5,143,X
2023-04-11T21:55:40Z,qh2z8vvu,serial-reaction-time,1,R,2,1,54,2314,1,1,507.300000011921,431,X
2023-04-11T21:55:41Z,qh2z8vvu,serial-reaction-time,1,R,2,1,55,2314,1,3,450.89999997615814,313,X
2023-04-11T21:55:41Z,qh2z8vvu,serial-reaction-time,1,R,2,1,56,2314,1,1,405,131,X
2023-04-11T21:55:42Z,qh2z8vvu,serial-reaction-time,1,R,2,1,57,2314,1,3,555.5999999642372,313,X
2023-04-11T21:55:42Z,qh2z8vvu,serial-reaction-time,1,R,2,1,58,2314,1,3,370.699999988079,133,X
2023-04-11T21:55:43Z,qh2z8vvu,serial-reaction-time,1,R,2,1,59,2314,1,1,361.2999999523163,331,X
2023-04-11T21:55:44Z,qh2z8vvu,serial-reaction-time,NA,R,2,1,60,2314,1,2,522.3999999761581,312,X
2023-04-11T21:55:44Z,qh2z8vvu,serial-reaction-time,1,R,2,0,60,2314,1,2,816.5999999642372,312,X
2023-04-11T21:55:44Z,qh2z8vvu,serial-reaction-time,1,R,2,1,61,2314,1,2,402.60000002384186,122,X
2023-04-11T21:55:45Z,qh2z8vvu,serial-reaction-time,1,R,2,1,62,2314,1,1,454.0999999642372,221,X
2023-04-11T21:55:46Z,qh2z8vvu,serial-reaction-time,1,R,2,1,63,2314,1,2,404.89999997615814,212,X
2023-04-11T21:55:46Z,qh2z8vvu,serial-reaction-time,1,R,2,1,64,2314,1,3,406.9000000357628,123,X
2023-04-11T21:55:47Z,qh2z8vvu,serial-reaction-time,1,R,2,1,65,2314,1,1,417.300000011921,231,X
2023-04-11T21:55:47Z,qh2z8vvu,serial-reaction-time,1,R,2,1,66,2314,1,1,432,311,X
2023-04-11T21:55:48Z,qh2z8vvu,serial-reaction-time,1,R,2,1,67,2314,1,1,369.4000000357628,111,X
2023-04-11T21:55:48Z,qh2z8vvu,serial-reaction-time,1,R,2,1,68,2314,1,2,498.7000000476837,112,X
2023-04-11T21:55:49Z,qh2z8vvu,serial-reaction-time,1,R,2,1,69,2314,1,2,398.7000000476837,122,X
2023-04-11T21:55:49Z,qh2z8vvu,serial-reaction-time,1,R,2,1,70,2314,1,1,481.5,221,X
2023-04-11T21:55:50Z,qh2z8vvu,serial-reaction-time,1,R,2,1,71,2314,1,4,642.4000000357628,214,X
2023-04-11T21:55:51Z,qh2z8vvu,serial-reaction-time,1,R,2,1,72,2314,1,4,684.6999999880791,144,X
2023-04-11T21:55:52Z,qh2z8vvu,serial-reaction-time,1,R,2,1,73,2314,1,2,433.39999997615814,442,X
2023-04-11T21:55:52Z,qh2z8vvu,serial-reaction-time,1,R,2,1,74,2314,1,2,345.5,422,X
2023-04-11T21:55:53Z,qh2z8vvu,serial-reaction-time,1,R,2,1,75,2314,1,4,372.9000000357628,224,X
2023-04-11T21:55:53Z,qh2z8vvu,serial-reaction-time,1,R,2,1,76,2314,1,3,479.39999997615814,243,X
2023-04-11T21:55:54Z,qh2z8vvu,serial-reaction-time,1,R,2,1,77,2314,1,3,362.60000002384186,433,X
2023-04-11T21:55:54Z,qh2z8vvu,serial-reaction-time,1,R,2,1,78,2314,1,2,434.2000000476837,332,X
2023-04-11T21:55:55Z,qh2z8vvu,serial-reaction-time,1,R,2,1,79,2314,1,3,461.300000011921,323,X
2023-04-11T21:55:56Z,qh2z8vvu,serial-reaction-time,1,R,2,1,80,2314,1,4,508.199999988079,234,X
2023-04-11T21:56:01Z,qh2z8vvu,html-keyboard-response,NA,NA,NA,NA,NA,NA,NA,NA,NA,NA,NA
2023-04-11T21:56:02Z,qh2z8vvu,html-keyboard-response,NA,NA,NA,NA,NA,NA,NA,NA,NA,NA,NA
2023-04-11T21:56:03Z,qh2z8vvu,serial-reaction-time,1,R,1,1,1,2314,0,2,406,2,X
2023-04-11T21:56:04Z,qh2z8vvu,serial-reaction-time,1,P,1,1,2,2314,0,2,273.89999997615814,22,X
2023-04-11T21:56:04Z,qh2z8vvu,serial-reaction-time,1,R,1,1,3,2314,0,1,395.199999988079,221,L
2023-04-11T21:56:05Z,qh2z8vvu,serial-reaction-time,1,P,1,1,4,2314,0,3,486.300000011921,213,H
2023-04-11T21:56:06Z,qh2z8vvu,serial-reaction-time,1,R,1,1,5,2314,0,2,537.1000000238419,132,L
2023-04-11T21:56:06Z,qh2z8vvu,serial-reaction-time,1,P,1,1,6,2314,0,1,456.89999997615814,321,H
2023-04-11T21:56:07Z,qh2z8vvu,serial-reaction-time,1,R,1,1,7,2314,0,1,315.69999998807907,211,L
2023-04-11T21:56:07Z,qh2z8vvu,serial-reaction-time,1,P,1,1,8,2314,0,4,331,114,H
2023-04-11T21:56:08Z,qh2z8vvu,serial-reaction-time,NA,R,1,1,9,2314,0,2,352.80000001192093,142,L
2023-04-11T21:56:08Z,qh2z8vvu,serial-reaction-time,1,R,1,0,9,2314,0,2,399.2000000476837,142,L
2023-04-11T21:56:08Z,qh2z8vvu,serial-reaction-time,1,P,1,1,10,2314,0,2,416.10000002384186,422,H
2023-04-11T21:56:09Z,qh2z8vvu,serial-reaction-time,1,R,1,1,11,2314,0,3,407.5,223,H
2023-04-11T21:56:09Z,qh2z8vvu,serial-reaction-time,1,P,1,1,12,2314,0,3,396.5999999642372,233,H
2023-04-11T21:56:10Z,qh2z8vvu,serial-reaction-time,1,R,1,1,13,2314,0,2,582.6999999880791,332,L
2023-04-11T21:56:11Z,qh2z8vvu,serial-reaction-time,1,P,1,1,14,2314,0,1,403.89999997615814,321,H
2023-04-11T21:56:11Z,qh2z8vvu,serial-reaction-time,1,R,1,1,15,2314,0,2,527.7999999523163,212,T
2023-04-11T21:56:12Z,qh2z8vvu,serial-reaction-time,1,P,1,1,16,2314,0,4,472.5,124,H
2023-04-11T21:56:12Z,qh2z8vvu,serial-reaction-time,1,R,1,1,17,2314,0,4,341.9000000357628,244,L
2023-04-11T21:56:13Z,qh2z8vvu,serial-reaction-time,1,P,1,1,18,2314,0,2,419.4000000357628,442,H
2023-04-11T21:56:13Z,qh2z8vvu,serial-reaction-time,1,R,1,1,19,2314,0,4,373.699999988079,424,T
2023-04-11T21:56:14Z,qh2z8vvu,serial-reaction-time,NA,P,1,1,20,2314,0,3,462.699999988079,243,H
2023-04-11T21:56:14Z,qh2z8vvu,serial-reaction-time,1,P,1,0,20,2314,0,3,597.8000000119209,243,H
2023-04-11T21:56:15Z,qh2z8vvu,serial-reaction-time,1,R,1,1,21,2314,0,2,489.9000000357628,432,H
2023-04-11T21:56:15Z,qh2z8vvu,serial-reaction-time,1,P,1,1,22,2314,0,1,429.5,321,H
2023-04-11T21:56:16Z,qh2z8vvu,serial-reaction-time,NA,R,1,1,23,2314,0,2,465.10000002384186,212,T
2023-04-11T21:56:16Z,qh2z8vvu,serial-reaction-time,1,R,1,0,23,2314,0,2,673.4000000357628,212,T
2023-04-11T21:56:17Z,qh2z8vvu,serial-reaction-time,1,P,1,1,24,2314,0,4,494.0999999642372,124,H
2023-04-11T21:56:17Z,qh2z8vvu,serial-reaction-time,1,R,1,1,25,2314,0,3,507.300000011921,243,H
2023-04-11T21:56:18Z,qh2z8vvu,serial-reaction-time,1,P,1,1,26,2314,0,2,436,432,H
2023-04-11T21:56:19Z,qh2z8vvu,serial-reaction-time,1,R,1,1,27,2314,0,4,507.5,324,L
2023-04-11T21:56:19Z,qh2z8vvu,serial-reaction-time,1,P,1,1,28,2314,0,3,571.9000000357628,243,H
2023-04-11T21:56:20Z,qh2z8vvu,serial-reaction-time,1,R,1,1,29,2314,0,2,486.7999999523163,432,H
2023-04-11T21:56:20Z,qh2z8vvu,serial-reaction-time,1,P,1,1,30,2314,0,1,392.4000000357628,321,H
2023-04-11T21:56:21Z,qh2z8vvu,serial-reaction-time,1,R,1,1,31,2314,0,2,588.6999999880791,212,T
2023-04-11T21:56:22Z,qh2z8vvu,serial-reaction-time,1,P,1,1,32,2314,0,4,540.8999999761581,124,H
2023-04-11T21:56:22Z,qh2z8vvu,serial-reaction-time,1,R,1,1,33,2314,0,3,583.1999999880791,243,H
2023-04-11T21:56:23Z,qh2z8vvu,serial-reaction-time,1,P,1,1,34,2314,0,2,399.60000002384186,432,H
2023-04-11T21:56:24Z,qh2z8vvu,serial-reaction-time,1,R,1,1,35,2314,0,2,436.2000000476837,322,L
2023-04-11T21:56:24Z,qh2z8vvu,serial-reaction-time,1,P,1,1,36,2314,0,3,502.2999999523163,223,H
2023-04-11T21:56:25Z,qh2z8vvu,serial-reaction-time,1,R,1,1,37,2314,0,2,383.800000011921,232,T
2023-04-11T21:56:25Z,qh2z8vvu,serial-reaction-time,1,P,1,1,38,2314,0,1,497.699999988079,321,H
2023-04-11T21:56:26Z,qh2z8vvu,serial-reaction-time,1,R,1,1,39,2314,0,3,436,213,H
2023-04-11T21:56:27Z,qh2z8vvu,serial-reaction-time,1,P,1,1,40,2314,0,4,473,134,H
2023-04-11T21:56:27Z,qh2z8vvu,serial-reaction-time,1,R,1,1,41,2314,0,1,495.199999988079,341,H
2023-04-11T21:56:28Z,qh2z8vvu,serial-reaction-time,NA,P,1,1,42,2314,0,2,384.5,412,H
2023-04-11T21:56:28Z,qh2z8vvu,serial-reaction-time,NA,P,1,0,42,2314,0,2,685.5,412,H
2023-04-11T21:56:28Z,qh2z8vvu,serial-reaction-time,1,P,1,0,42,2314,0,2,685.8000000119209,412,H
2023-04-11T21:56:29Z,qh2z8vvu,serial-reaction-time,1,R,1,1,43,2314,0,1,691.1999999880791,121,T
2023-04-11T21:56:29Z,qh2z8vvu,serial-reaction-time,1,P,1,1,44,2314,0,3,426.199999988079,213,H
2023-04-11T21:56:30Z,qh2z8vvu,serial-reaction-time,1,R,1,1,45,2314,0,1,528.8000000119209,131,T
2023-04-11T21:56:31Z,qh2z8vvu,serial-reaction-time,1,P,1,1,46,2314,0,1,388.4000000357628,311,H
2023-04-11T21:56:31Z,qh2z8vvu,serial-reaction-time,1,R,1,1,47,2314,0,1,436.800000011921,111,R
2023-04-11T21:56:32Z,qh2z8vvu,serial-reaction-time,1,P,1,1,48,2314,0,4,512.5999999642372,114,H
2023-04-11T21:56:32Z,qh2z8vvu,serial-reaction-time,1,R,1,1,49,2314,0,4,601.8999999761581,144,H
2023-04-11T21:56:33Z,qh2z8vvu,serial-reaction-time,1,P,1,1,50,2314,0,2,546.5,442,H
2023-04-11T21:56:34Z,qh2z8vvu,serial-reaction-time,1,R,1,1,51,2314,0,2,426.39999997615814,422,H
2023-04-11T21:56:34Z,qh2z8vvu,serial-reaction-time,1,P,1,1,52,2314,0,3,594.1000000238419,223,H
2023-04-11T21:56:35Z,qh2z8vvu,serial-reaction-time,1,R,1,1,53,2314,0,4,772.8000000119209,234,L
2023-04-11T21:56:36Z,qh2z8vvu,serial-reaction-time,1,P,1,1,54,2314,0,1,464.9000000357628,341,H
2023-04-11T21:56:36Z,qh2z8vvu,serial-reaction-time,1,R,1,1,55,2314,0,1,361.5,411,L
2023-04-11T21:56:37Z,qh2z8vvu,serial-reaction-time,1,P,1,1,56,2314,0,4,545.8999999761581,114,H
2023-04-11T21:56:38Z,qh2z8vvu,serial-reaction-time,1,R,1,1,57,2314,0,3,529.3000000119209,143,L
2023-04-11T21:56:38Z,qh2z8vvu,serial-reaction-time,1,P,1,1,58,2314,0,2,396.9000000357628,432,H
2023-04-11T21:56:39Z,qh2z8vvu,serial-reaction-time,1,R,1,1,59,2314,0,3,369.800000011921,323,T
2023-04-11T21:56:39Z,qh2z8vvu,serial-reaction-time,1,P,1,1,60,2314,0,3,416.699999988079,233,H
2023-04-11T21:56:40Z,qh2z8vvu,serial-reaction-time,1,R,1,1,61,2314,0,2,363.5,332,L
2023-04-11T21:56:40Z,qh2z8vvu,serial-reaction-time,1,P,1,1,62,2314,0,1,402.5,321,H
2023-04-11T21:56:41Z,qh2z8vvu,serial-reaction-time,1,R,1,1,63,2314,0,4,376.699999988079,214,L
2023-04-11T21:56:41Z,qh2z8vvu,serial-reaction-time,1,P,1,1,64,2314,0,4,484.39999997615814,144,H
2023-04-11T21:56:42Z,qh2z8vvu,serial-reaction-time,1,R,1,1,65,2314,0,4,364.60000002384186,444,R
2023-04-11T21:56:42Z,qh2z8vvu,serial-reaction-time,1,P,1,1,66,2314,0,2,371.5,442,H
2023-04-11T21:56:43Z,qh2z8vvu,serial-reaction-time,1,R,1,1,67,2314,0,4,389.2000000476837,424,T
2023-04-11T21:56:44Z,qh2z8vvu,serial-reaction-time,1,P,1,1,68,2314,0,3,547.5,243,H
2023-04-11T21:56:44Z,qh2z8vvu,serial-reaction-time,1,R,1,1,69,2314,0,3,374.7000000476837,433,L
2023-04-11T21:56:45Z,qh2z8vvu,serial-reaction-time,1,P,1,1,70,2314,0,1,432.300000011921,331,H
2023-04-11T21:56:45Z,qh2z8vvu,serial-reaction-time,1,R,1,1,71,2314,0,2,448.4000000357628,312,L
2023-04-11T21:56:46Z,qh2z8vvu,serial-reaction-time,1,P,1,1,72,2314,0,4,549.5,124,H
2023-04-11T21:56:47Z,qh2z8vvu,serial-reaction-time,1,R,1,1,73,2314,0,2,473.699999988079,242,T
2023-04-11T21:56:47Z,qh2z8vvu,serial-reaction-time,1,P,1,1,74,2314,0,2,448.2000000476837,422,H
2023-04-11T21:56:48Z,qh2z8vvu,serial-reaction-time,1,R,1,1,75,2314,0,1,413.5,221,L
2023-04-11T21:56:49Z,qh2z8vvu,serial-reaction-time,1,P,1,1,76,2314,0,3,684.8000000119209,213,H
2023-04-11T21:56:49Z,qh2z8vvu,serial-reaction-time,1,R,1,1,77,2314,0,4,453.5,134,H
2023-04-11T21:56:50Z,qh2z8vvu,serial-reaction-time,1,P,1,1,78,2314,0,1,428.800000011921,341,H
2023-04-11T21:56:50Z,qh2z8vvu,serial-reaction-time,1,R,1,1,79,2314,0,2,412.300000011921,412,H
2023-04-11T21:56:51Z,qh2z8vvu,serial-reaction-time,1,P,1,1,80,2314,0,4,481.10000002384186,124,H
2023-04-11T21:56:56Z,qh2z8vvu,html-keyboard-response,NA,NA,NA,NA,NA,NA,NA,NA,NA,NA,NA
2023-04-11T21:56:56Z,qh2z8vvu,html-keyboard-response,NA,NA,NA,NA,NA,NA,NA,NA,NA,NA,NA
2023-04-11T21:56:57Z,qh2z8vvu,serial-reaction-time,1,R,2,1,1,2314,0,1,289.19999998807907,1,X
2023-04-11T21:56:58Z,qh2z8vvu,serial-reaction-time,1,P,2,1,2,2314,0,2,473.5,12,X
2023-04-11T21:56:59Z,qh2z8vvu,serial-reaction-time,1,R,2,1,3,2314,0,4,566,124,H
2023-04-11T21:56:59Z,qh2z8vvu,serial-reaction-time,NA,P,2,1,4,2314,0,3,435.300000011921,243,H
2023-04-11T21:56:59Z,qh2z8vvu,serial-reaction-time,1,P,2,0,4,2314,0,3,697.3000000119209,243,H
2023-04-11T21:57:00Z,qh2z8vvu,serial-reaction-time,1,R,2,1,5,2314,0,4,493.60000002384186,434,T
2023-04-11T21:57:01Z,qh2z8vvu,serial-reaction-time,1,P,2,1,6,2314,0,1,631.1999999880791,341,H
2023-04-11T21:57:01Z,qh2z8vvu,serial-reaction-time,NA,R,2,1,7,2314,0,3,397.199999988079,413,L
2023-04-11T21:57:02Z,qh2z8vvu,serial-reaction-time,1,R,2,0,7,2314,0,3,687.9000000357628,413,L
2023-04-11T21:57:02Z,qh2z8vvu,serial-reaction-time,1,P,2,1,8,2314,0,4,588.0999999642372,134,H
2023-04-11T21:57:03Z,qh2z8vvu,serial-reaction-time,1,R,2,1,9,2314,0,4,425.699999988079,344,L
2023-04-11T21:57:04Z,qh2z8vvu,serial-reaction-time,1,P,2,1,10,2314,0,2,446.300000011921,442,H
2023-04-11T21:57:04Z,qh2z8vvu,serial-reaction-time,1,R,2,1,11,2314,0,4,436.89999997615814,424,T
2023-04-11T21:57:05Z,qh2z8vvu,serial-reaction-time,1,P,2,1,12,2314,0,3,669.0999999642372,243,H
2023-04-11T21:57:05Z,qh2z8vvu,serial-reaction-time,1,R,2,1,13,2314,0,1,415.300000011921,431,L
2023-04-11T21:57:06Z,qh2z8vvu,serial-reaction-time,1,P,2,1,14,2314,0,1,332.4000000357628,311,H
2023-04-11T21:57:07Z,qh2z8vvu,serial-reaction-time,1,R,2,1,15,2314,0,2,509.699999988079,112,L
2023-04-11T21:57:07Z,qh2z8vvu,serial-reaction-time,1,P,2,1,16,2314,0,4,481,124,H
2023-04-11T21:57:08Z,qh2z8vvu,serial-reaction-time,1,R,2,1,17,2314,0,4,433.699999988079,244,L
2023-04-11T21:57:08Z,qh2z8vvu,serial-reaction-time,1,P,2,1,18,2314,0,2,390.39999997615814,442,H
2023-04-11T21:57:09Z,qh2z8vvu,serial-reaction-time,1,R,2,1,19,2314,0,3,523.2999999523163,423,L
2023-04-11T21:57:11Z,qh2z8vvu,serial-reaction-time,1,P,2,1,20,2314,0,3,1543.699999988079,233,H
2023-04-11T21:57:11Z,qh2z8vvu,serial-reaction-time,1,R,2,1,21,2314,0,1,428.5,331,H
2023-04-11T21:57:12Z,qh2z8vvu,serial-reaction-time,1,P,2,1,22,2314,0,1,342.5999999642372,311,H
2023-04-11T21:57:12Z,qh2z8vvu,serial-reaction-time,1,R,2,1,23,2314,0,1,338.69999998807907,111,R
2023-04-11T21:57:13Z,qh2z8vvu,serial-reaction-time,1,P,2,1,24,2314,0,4,479.5,114,H
2023-04-11T21:57:13Z,qh2z8vvu,serial-reaction-time,1,R,2,1,25,2314,0,4,363.39999997615814,144,H
2023-04-11T21:57:14Z,qh2z8vvu,serial-reaction-time,1,P,2,1,26,2314,0,2,497.5,442,H
2023-04-11T21:57:14Z,qh2z8vvu,serial-reaction-time,1,R,2,1,27,2314,0,2,365.5999999642372,422,H
2023-04-11T21:57:15Z,qh2z8vvu,serial-reaction-time,1,P,2,1,28,2314,0,3,518.5,223,H
2023-04-11T21:57:15Z,qh2z8vvu,serial-reaction-time,NA,R,2,1,29,2314,0,1,292.60000002384186,231,L
2023-04-11T21:57:16Z,qh2z8vvu,serial-reaction-time,1,R,2,0,29,2314,0,1,576.3000000119209,231,L
2023-04-11T21:57:16Z,qh2z8vvu,serial-reaction-time,1,P,2,1,30,2314,0,1,395.0999999642372,311,H
2023-04-11T21:57:17Z,qh2z8vvu,serial-reaction-time,1,R,2,1,31,2314,0,2,466.300000011921,112,L
2023-04-11T21:57:17Z,qh2z8vvu,serial-reaction-time,1,P,2,1,32,2314,0,4,506.800000011921,124,H
2023-04-11T21:57:18Z,qh2z8vvu,serial-reaction-time,1,R,2,1,33,2314,0,4,343.69999998807907,244,L
2023-04-11T21:57:18Z,qh2z8vvu,serial-reaction-time,1,P,2,1,34,2314,0,2,323.10000002384186,442,H
2023-04-11T21:57:19Z,qh2z8vvu,serial-reaction-time,1,R,2,1,35,2314,0,4,547.5,424,T
2023-04-11T21:57:20Z,qh2z8vvu,serial-reaction-time,1,P,2,1,36,2314,0,3,609.5,243,H
2023-04-11T21:57:20Z,qh2z8vvu,serial-reaction-time,1,R,2,1,37,2314,0,1,396.800000011921,431,L
2023-04-11T21:57:21Z,qh2z8vvu,serial-reaction-time,1,P,2,1,38,2314,0,1,363.699999988079,311,H
2023-04-11T21:57:21Z,qh2z8vvu,serial-reaction-time,1,R,2,1,39,2314,0,2,508.5,112,L
2023-04-11T21:57:22Z,qh2z8vvu,serial-reaction-time,1,P,2,1,40,2314,0,4,369.699999988079,124,H
2023-04-11T21:57:22Z,qh2z8vvu,serial-reaction-time,1,R,2,1,41,2314,0,4,354.9000000357628,244,L
2023-04-11T21:57:23Z,qh2z8vvu,serial-reaction-time,1,P,2,1,42,2314,0,2,373.0999999642372,442,H
2023-04-11T21:57:23Z,qh2z8vvu,serial-reaction-time,1,R,2,1,43,2314,0,2,318.89999997615814,422,H
2023-04-11T21:57:24Z,qh2z8vvu,serial-reaction-time,1,P,2,1,44,2314,0,3,529.6000000238419,223,H
2023-04-11T21:57:25Z,qh2z8vvu,serial-reaction-time,1,R,2,1,45,2314,0,2,401.699999988079,232,T
2023-04-11T21:57:25Z,qh2z8vvu,serial-reaction-time,1,P,2,1,46,2314,0,1,531.1999999880791,321,H
2023-04-11T21:57:26Z,qh2z8vvu,serial-reaction-time,NA,R,2,1,47,2314,0,3,495.39999997615814,213,H
2023-04-11T21:57:26Z,qh2z8vvu,serial-reaction-time,1,R,2,0,47,2314,0,3,740.5999999642372,213,H
2023-04-11T21:57:27Z,qh2z8vvu,serial-reaction-time,1,P,2,1,48,2314,0,4,507.9000000357628,134,H
2023-04-11T21:57:27Z,qh2z8vvu,serial-reaction-time,1,R,2,1,49,2314,0,4,363.9000000357628,344,L
2023-04-11T21:57:28Z,qh2z8vvu,serial-reaction-time,1,P,2,1,50,2314,0,2,464.5,442,H
2023-04-11T21:57:28Z,qh2z8vvu,serial-reaction-time,1,R,2,1,51,2314,0,3,522.1000000238419,423,L
2023-04-11T21:57:29Z,qh2z8vvu,serial-reaction-time,1,P,2,1,52,2314,0,3,643.5,233,H
2023-04-11T21:57:30Z,qh2z8vvu,serial-reaction-time,1,R,2,1,53,2314,0,3,383.39999997615814,333,R
2023-04-11T21:57:30Z,qh2z8vvu,serial-reaction-time,1,P,2,1,54,2314,0,1,471.10000002384186,331,H
2023-04-11T21:57:31Z,qh2z8vvu,serial-reaction-time,1,R,2,1,55,2314,0,3,484.5,313,T
2023-04-11T21:57:32Z,qh2z8vvu,serial-reaction-time,1,P,2,1,56,2314,0,4,480.300000011921,134,H
2023-04-11T21:57:32Z,qh2z8vvu,serial-reaction-time,1,R,2,1,57,2314,0,3,551.7000000476837,343,T
2023-04-11T21:57:33Z,qh2z8vvu,serial-reaction-time,1,P,2,1,58,2314,0,2,654.1999999880791,432,H
2023-04-11T21:57:34Z,qh2z8vvu,serial-reaction-time,1,R,2,1,59,2314,0,2,391.60000002384186,322,L
2023-04-11T21:57:34Z,qh2z8vvu,serial-reaction-time,1,P,2,1,60,2314,0,3,474.60000002384186,223,H
2023-04-11T21:57:35Z,qh2z8vvu,serial-reaction-time,1,R,2,1,61,2314,0,1,499.699999988079,231,L
2023-04-11T21:57:35Z,qh2z8vvu,serial-reaction-time,1,P,2,1,62,2314,0,1,330.60000002384186,311,H
2023-04-11T21:57:36Z,qh2z8vvu,serial-reaction-time,1,R,2,1,63,2314,0,4,447.9000000357628,114,H
2023-04-11T21:57:36Z,qh2z8vvu,serial-reaction-time,1,P,2,1,64,2314,0,4,360.800000011921,144,H
2023-04-11T21:57:37Z,qh2z8vvu,serial-reaction-time,1,R,2,1,65,2314,0,4,398.5,444,R
2023-04-11T21:57:37Z,qh2z8vvu,serial-reaction-time,1,P,2,1,66,2314,0,2,454.699999988079,442,H
2023-04-11T21:57:38Z,qh2z8vvu,serial-reaction-time,1,R,2,1,67,2314,0,3,369,423,L
2023-04-11T21:57:39Z,qh2z8vvu,serial-reaction-time,1,P,2,1,68,2314,0,3,418.5,233,H
2023-04-11T21:57:39Z,qh2z8vvu,serial-reaction-time,1,R,2,1,69,2314,0,3,365.39999997615814,333,R
2023-04-11T21:57:39Z,qh2z8vvu,serial-reaction-time,1,P,2,1,70,2314,0,1,308.4000000357628,331,H
2023-04-11T21:57:40Z,qh2z8vvu,serial-reaction-time,1,R,2,1,71,2314,0,4,377.199999988079,314,L
2023-04-11T21:57:41Z,qh2z8vvu,serial-reaction-time,1,P,2,1,72,2314,0,4,543.1999999880791,144,H
2023-04-11T21:57:41Z,qh2z8vvu,serial-reaction-time,1,R,2,1,73,2314,0,4,394.10000002384186,444,R
2023-04-11T21:57:42Z,qh2z8vvu,serial-reaction-time,1,P,2,1,74,2314,0,2,508.800000011921,442,H
2023-04-11T21:57:43Z,qh2z8vvu,serial-reaction-time,1,R,2,1,75,2314,0,4,572.3000000119209,424,T
2023-04-11T21:57:43Z,qh2z8vvu,serial-reaction-time,1,P,2,1,76,2314,0,3,577.6999999880791,243,H
2023-04-11T21:57:44Z,qh2z8vvu,serial-reaction-time,NA,R,2,1,77,2314,0,4,367.39999997615814,434,T
2023-04-11T21:57:44Z,qh2z8vvu,serial-reaction-time,1,R,2,0,77,2314,0,4,689.8999999761581,434,T
2023-04-11T21:57:45Z,qh2z8vvu,serial-reaction-time,1,P,2,1,78,2314,0,1,502.89999997615814,341,H
2023-04-11T21:57:45Z,qh2z8vvu,serial-reaction-time,1,R,2,1,79,2314,0,1,347.5,411,L
2023-04-11T21:57:46Z,qh2z8vvu,serial-reaction-time,1,P,2,1,80,2314,0,4,384.5,114,H
2023-04-11T21:57:51Z,qh2z8vvu,html-keyboard-response,NA,NA,NA,NA,NA,NA,NA,NA,NA,NA,NA
2023-04-11T21:57:58Z,qh2z8vvu,html-keyboard-response,NA,NA,NA,NA,NA,NA,NA,NA,NA,NA,NA
2023-04-11T21:57:59Z,qh2z8vvu,serial-reaction-time,NA,R,3,1,1,2314,0,3,189.30000001192093,3,X
2023-04-11T21:58:00Z,qh2z8vvu,serial-reaction-time,1,R,3,0,1,2314,0,3,682.1999999880791,3,X
2023-04-11T21:58:00Z,qh2z8vvu,serial-reaction-time,1,P,3,1,2,2314,0,2,801.3000000119209,32,X
2023-04-11T21:58:01Z,qh2z8vvu,serial-reaction-time,1,R,3,1,3,2314,0,1,375.7999999523163,321,H
2023-04-11T21:58:02Z,qh2z8vvu,serial-reaction-time,1,P,3,1,4,2314,0,3,652.3000000119209,213,H
2023-04-11T21:58:02Z,qh2z8vvu,serial-reaction-time,1,R,3,1,5,2314,0,2,481.2999999523163,132,L
2023-04-11T21:58:03Z,qh2z8vvu,serial-reaction-time,1,P,3,1,6,2314,0,1,414.300000011921,321,H
2023-04-11T21:58:04Z,qh2z8vvu,serial-reaction-time,1,R,3,1,7,2314,0,4,468.800000011921,214,L
2023-04-11T21:58:04Z,qh2z8vvu,serial-reaction-time,1,P,3,1,8,2314,0,4,429.800000011921,144,H
2023-04-11T21:58:05Z,qh2z8vvu,serial-reaction-time,1,R,3,1,9,2314,0,4,464.39999997615814,444,R
2023-04-11T21:58:06Z,qh2z8vvu,serial-reaction-time,1,P,3,1,10,2314,0,2,788.5999999642372,442,H
2023-04-11T21:58:06Z,qh2z8vvu,serial-reaction-time,1,R,3,1,11,2314,0,3,495.10000002384186,423,L
2023-04-11T21:58:07Z,qh2z8vvu,serial-reaction-time,1,P,3,1,12,2314,0,3,340.39999997615814,233,H
2023-04-11T21:58:07Z,qh2z8vvu,serial-reaction-time,1,R,3,1,13,2314,0,4,458.10000002384186,334,L
2023-04-11T21:58:08Z,qh2z8vvu,serial-reaction-time,1,P,3,1,14,2314,0,1,448.199999988079,341,H
2023-04-11T21:58:09Z,qh2z8vvu,serial-reaction-time,1,R,3,1,15,2314,0,2,670.5,412,H
2023-04-11T21:58:09Z,qh2z8vvu,serial-reaction-time,1,P,3,1,16,2314,0,4,585.1999999880791,124,H
2023-04-11T21:58:10Z,qh2z8vvu,serial-reaction-time,1,R,3,1,17,2314,0,1,468.5999999642372,241,L
2023-04-11T21:58:11Z,qh2z8vvu,serial-reaction-time,1,P,3,1,18,2314,0,2,552.3000000119209,412,H
2023-04-11T21:58:11Z,qh2z8vvu,serial-reaction-time,1,R,3,1,19,2314,0,4,451.9000000357628,124,H
2023-04-11T21:58:12Z,qh2z8vvu,serial-reaction-time,1,P,3,1,20,2314,0,3,686.1000000238419,243,H
2023-04-11T21:58:13Z,qh2z8vvu,serial-reaction-time,1,R,3,1,21,2314,0,3,324.30000001192093,433,L
2023-04-11T21:58:13Z,qh2z8vvu,serial-reaction-time,1,P,3,1,22,2314,0,1,431.2999999523163,331,H
2023-04-11T21:58:14Z,qh2z8vvu,serial-reaction-time,NA,R,3,1,23,2314,0,2,372.10000002384186,312,L
2023-04-11T21:58:14Z,qh2z8vvu,serial-reaction-time,1,R,3,0,23,2314,0,2,719.8000000119209,312,L
2023-04-11T21:58:15Z,qh2z8vvu,serial-reaction-time,1,P,3,1,24,2314,0,4,520.5,124,H
2023-04-11T21:58:15Z,qh2z8vvu,serial-reaction-time,1,R,3,1,25,2314,0,2,381.9000000357628,242,T
2023-04-11T21:58:16Z,qh2z8vvu,serial-reaction-time,1,P,3,1,26,2314,0,2,360.10000002384186,422,H
2023-04-11T21:58:16Z,qh2z8vvu,serial-reaction-time,1,R,3,1,27,2314,0,4,466.7999999523163,224,L
2023-04-11T21:58:17Z,qh2z8vvu,serial-reaction-time,NA,P,3,1,28,2314,0,3,410.800000011921,243,H
2023-04-11T21:58:17Z,qh2z8vvu,serial-reaction-time,1,P,3,0,28,2314,0,3,600.3999999761581,243,H
2023-04-11T21:58:18Z,qh2z8vvu,serial-reaction-time,1,R,3,1,29,2314,0,1,484.800000011921,431,L
2023-04-11T21:58:18Z,qh2z8vvu,serial-reaction-time,1,P,3,1,30,2314,0,1,358.69999998807907,311,H
2023-04-11T21:58:19Z,qh2z8vvu,serial-reaction-time,1,R,3,1,31,2314,0,3,416,113,L
2023-04-11T21:58:19Z,qh2z8vvu,serial-reaction-time,1,P,3,1,32,2314,0,4,489.5,134,H
2023-04-11T21:58:20Z,qh2z8vvu,serial-reaction-time,1,R,3,1,33,2314,0,4,366.0999999642372,344,L
2023-04-11T21:58:20Z,qh2z8vvu,serial-reaction-time,1,P,3,1,34,2314,0,2,372.4000000357628,442,H
2023-04-11T21:58:21Z,qh2z8vvu,serial-reaction-time,1,R,3,1,35,2314,0,3,368.89999997615814,423,L
2023-04-11T21:58:21Z,qh2z8vvu,serial-reaction-time,1,P,3,1,36,2314,0,3,411.60000002384186,233,H
2023-04-11T21:58:22Z,qh2z8vvu,serial-reaction-time,1,R,3,1,37,2314,0,1,518.1999999880791,331,H
2023-04-11T21:58:22Z,qh2z8vvu,serial-reaction-time,1,P,3,1,38,2314,0,1,307,311,H
2023-04-11T21:58:23Z,qh2z8vvu,serial-reaction-time,1,R,3,1,39,2314,0,1,346.10000002384186,111,R
2023-04-11T21:58:23Z,qh2z8vvu,serial-reaction-time,1,P,3,1,40,2314,0,4,451.60000002384186,114,H
2023-04-11T21:58:24Z,qh2z8vvu,serial-reaction-time,1,R,3,1,41,2314,0,4,280.69999998807907,144,H
2023-04-11T21:58:24Z,qh2z8vvu,serial-reaction-time,1,P,3,1,42,2314,0,2,349.5,442,H
2023-04-11T21:58:25Z,qh2z8vvu,serial-reaction-time,1,R,3,1,43,2314,0,4,497.10000002384186,424,T
2023-04-11T21:58:26Z,qh2z8vvu,serial-reaction-time,1,P,3,1,44,2314,0,3,492.5999999642372,243,H
2023-04-11T21:58:26Z,qh2z8vvu,serial-reaction-time,1,R,3,1,45,2314,0,1,334.19999998807907,431,L
2023-04-11T21:58:26Z,qh2z8vvu,serial-reaction-time,1,P,3,1,46,2314,0,1,306.60000002384186,311,H
2023-04-11T21:58:27Z,qh2z8vvu,serial-reaction-time,NA,R,3,1,47,2314,0,4,409.7999999523163,114,H
2023-04-11T21:58:27Z,qh2z8vvu,serial-reaction-time,1,R,3,0,47,2314,0,4,620.1999999880791,114,H
2023-04-11T21:58:28Z,qh2z8vvu,serial-reaction-time,1,P,3,1,48,2314,0,4,377.199999988079,144,H
2023-04-11T21:58:28Z,qh2z8vvu,serial-reaction-time,1,R,3,1,49,2314,0,2,521.2999999523163,442,H
2023-04-11T21:58:29Z,qh2z8vvu,serial-reaction-time,1,P,3,1,50,2314,0,2,378.10000002384186,422,H
2023-04-11T21:58:29Z,qh2z8vvu,serial-reaction-time,1,R,3,1,51,2314,0,2,323.60000002384186,222,R
2023-04-11T21:58:30Z,qh2z8vvu,serial-reaction-time,1,P,3,1,52,2314,0,3,533.6999999880791,223,H
2023-04-11T21:58:30Z,qh2z8vvu,serial-reaction-time,1,R,3,1,53,2314,0,3,344.0999999642372,233,H
2023-04-11T21:58:31Z,qh2z8vvu,serial-reaction-time,1,P,3,1,54,2314,0,1,533.1999999880791,331,H
2023-04-11T21:58:32Z,qh2z8vvu,serial-reaction-time,NA,R,3,1,55,2314,0,2,523.5999999642372,312,L
2023-04-11T21:58:32Z,qh2z8vvu,serial-reaction-time,1,R,3,0,55,2314,0,2,609.0999999642372,312,L
2023-04-11T21:58:33Z,qh2z8vvu,serial-reaction-time,1,P,3,1,56,2314,0,4,522.6999999880791,124,H
2023-04-11T21:58:33Z,qh2z8vvu,serial-reaction-time,1,R,3,1,57,2314,0,1,414.5,241,L
2023-04-11T21:58:34Z,qh2z8vvu,serial-reaction-time,NA,P,3,1,58,2314,0,2,384.300000011921,412,H
2023-04-11T21:58:34Z,qh2z8vvu,serial-reaction-time,1,P,3,0,58,2314,0,2,620.8000000119209,412,H
2023-04-11T21:58:34Z,qh2z8vvu,serial-reaction-time,1,R,3,1,59,2314,0,4,485.89999997615814,124,H
2023-04-11T21:58:35Z,qh2z8vvu,serial-reaction-time,1,P,3,1,60,2314,0,3,545.9000000357628,243,H
2023-04-11T21:58:36Z,qh2z8vvu,serial-reaction-time,1,R,3,1,61,2314,0,1,456.699999988079,431,L
2023-04-11T21:58:36Z,qh2z8vvu,serial-reaction-time,1,P,3,1,62,2314,0,1,231.80000001192093,311,H
2023-04-11T21:58:37Z,qh2z8vvu,serial-reaction-time,1,R,3,1,63,2314,0,2,450.2000000476837,112,L
2023-04-11T21:58:37Z,qh2z8vvu,serial-reaction-time,1,P,3,1,64,2314,0,4,412.10000002384186,124,H
2023-04-11T21:58:38Z,qh2z8vvu,serial-reaction-time,1,R,3,1,65,2314,0,2,617.1999999880791,242,T
2023-04-11T21:58:38Z,qh2z8vvu,serial-reaction-time,1,P,3,1,66,2314,0,2,358.30000001192093,422,H
2023-04-11T21:58:39Z,qh2z8vvu,serial-reaction-time,1,R,3,1,67,2314,0,2,266.4000000357628,222,R
2023-04-11T21:58:39Z,qh2z8vvu,serial-reaction-time,1,P,3,1,68,2314,0,3,489.800000011921,223,H
2023-04-11T21:58:40Z,qh2z8vvu,serial-reaction-time,NA,R,3,1,69,2314,0,1,345.60000002384186,231,L
2023-04-11T21:58:40Z,qh2z8vvu,serial-reaction-time,1,R,3,0,69,2314,0,1,491.199999988079,231,L
2023-04-11T21:58:41Z,qh2z8vvu,serial-reaction-time,1,P,3,1,70,2314,0,1,424.89999997615814,311,H
2023-04-11T21:58:41Z,qh2z8vvu,serial-reaction-time,1,R,3,1,71,2314,0,2,450.4000000357628,112,L
2023-04-11T21:58:42Z,qh2z8vvu,serial-reaction-time,1,P,3,1,72,2314,0,4,460,124,H
2023-04-11T21:58:42Z,qh2z8vvu,serial-reaction-time,1,R,3,1,73,2314,0,1,489.5999999642372,241,L
2023-04-11T21:58:43Z,qh2z8vvu,serial-reaction-time,1,P,3,1,74,2314,0,2,564.3000000119209,412,H
2023-04-11T21:58:44Z,qh2z8vvu,serial-reaction-time,1,R,3,1,75,2314,0,1,391,121,T
2023-04-11T21:58:45Z,qh2z8vvu,serial-reaction-time,1,P,3,1,76,2314,0,3,755.7000000476837,213,H
2023-04-11T21:58:45Z,qh2z8vvu,serial-reaction-time,1,R,3,1,77,2314,0,1,395.300000011921,131,T
2023-04-11T21:58:46Z,qh2z8vvu,serial-reaction-time,1,P,3,1,78,2314,0,1,566.5,311,H
2023-04-11T21:58:46Z,qh2z8vvu,serial-reaction-time,1,R,3,1,79,2314,0,1,460.10000002384186,111,R
2023-04-11T21:58:47Z,qh2z8vvu,serial-reaction-time,1,P,3,1,80,2314,0,4,493.5999999642372,114,H
2023-04-11T21:58:52Z,qh2z8vvu,html-keyboard-response,NA,NA,NA,NA,NA,NA,NA,NA,NA,NA,NA
2023-04-11T21:58:58Z,qh2z8vvu,html-keyboard-response,NA,NA,NA,NA,NA,NA,NA,NA,NA,NA,NA
2023-04-11T21:59:00Z,qh2z8vvu,serial-reaction-time,1,R,4,1,1,2314,0,1,452.4000000357628,1,X
2023-04-11T21:59:00Z,qh2z8vvu,serial-reaction-time,1,P,4,1,2,2314,0,2,453.199999988079,12,X
2023-04-11T21:59:01Z,qh2z8vvu,serial-reaction-time,1,R,4,1,3,2314,0,1,396.5,121,T
2023-04-11T21:59:01Z,qh2z8vvu,serial-reaction-time,1,P,4,1,4,2314,0,3,421.2000000476837,213,H
2023-04-11T21:59:02Z,qh2z8vvu,serial-reaction-time,1,R,4,1,5,2314,0,1,434.800000011921,131,T
2023-04-11T21:59:03Z,qh2z8vvu,serial-reaction-time,1,P,4,1,6,2314,0,1,367.800000011921,311,H
2023-04-11T21:59:03Z,qh2z8vvu,serial-reaction-time,1,R,4,1,7,2314,0,1,329.89999997615814,111,R
2023-04-11T21:59:04Z,qh2z8vvu,serial-reaction-time,1,P,4,1,8,2314,0,4,412.0999999642372,114,H
2023-04-11T21:59:04Z,qh2z8vvu,serial-reaction-time,1,R,4,1,9,2314,0,4,362.60000002384186,144,H
2023-04-11T21:59:05Z,qh2z8vvu,serial-reaction-time,1,P,4,1,10,2314,0,2,451.10000002384186,442,H
2023-04-11T21:59:05Z,qh2z8vvu,serial-reaction-time,1,R,4,1,11,2314,0,4,399.0999999642372,424,T
2023-04-11T21:59:06Z,qh2z8vvu,serial-reaction-time,1,P,4,1,12,2314,0,3,540.3999999761581,243,H
2023-04-11T21:59:06Z,qh2z8vvu,serial-reaction-time,1,R,4,1,13,2314,0,4,428.0999999642372,434,T
2023-04-11T21:59:07Z,qh2z8vvu,serial-reaction-time,1,P,4,1,14,2314,0,1,405.0999999642372,341,H
2023-04-11T21:59:08Z,qh2z8vvu,serial-reaction-time,1,R,4,1,15,2314,0,3,645.8000000119209,413,L
2023-04-11T21:59:08Z,qh2z8vvu,serial-reaction-time,1,P,4,1,16,2314,0,4,483.2000000476837,134,H
2023-04-11T21:59:09Z,qh2z8vvu,serial-reaction-time,1,R,4,1,17,2314,0,4,1008.0999999642372,344,L
2023-04-11T21:59:10Z,qh2z8vvu,serial-reaction-time,1,P,4,1,18,2314,0,2,484.39999997615814,442,H
2023-04-11T21:59:11Z,qh2z8vvu,serial-reaction-time,1,R,4,1,19,2314,0,4,433.60000002384186,424,T
2023-04-11T21:59:11Z,qh2z8vvu,serial-reaction-time,1,P,4,1,20,2314,0,3,661.5,243,H
2023-04-11T21:59:12Z,qh2z8vvu,serial-reaction-time,NA,R,4,1,21,2314,0,2,458.4000000357628,432,H
2023-04-11T21:59:12Z,qh2z8vvu,serial-reaction-time,1,R,4,0,21,2314,0,2,565.5000000596046,432,H
2023-04-11T21:59:13Z,qh2z8vvu,serial-reaction-time,1,P,4,1,22,2314,0,1,410.89999997615814,321,H
2023-04-11T21:59:13Z,qh2z8vvu,serial-reaction-time,1,R,4,1,23,2314,0,4,403.800000011921,214,L
2023-04-11T21:59:14Z,qh2z8vvu,serial-reaction-time,1,P,4,1,24,2314,0,4,319.19999998807907,144,H
2023-04-11T21:59:14Z,qh2z8vvu,serial-reaction-time,1,R,4,1,25,2314,0,3,406.0999999642372,443,L
2023-04-11T21:59:15Z,qh2z8vvu,serial-reaction-time,1,P,4,1,26,2314,0,2,444.300000011921,432,H
2023-04-11T21:59:15Z,qh2z8vvu,serial-reaction-time,1,R,4,1,27,2314,0,4,472.300000011921,324,L
2023-04-11T21:59:16Z,qh2z8vvu,serial-reaction-time,1,P,4,1,28,2314,0,3,559.5,243,H
2023-04-11T21:59:17Z,qh2z8vvu,serial-reaction-time,1,R,4,1,29,2314,0,4,412.10000002384186,434,T
2023-04-11T21:59:17Z,qh2z8vvu,serial-reaction-time,1,P,4,1,30,2314,0,1,408.0999999642372,341,H
2023-04-11T21:59:18Z,qh2z8vvu,serial-reaction-time,1,R,4,1,31,2314,0,4,526.8999999761581,414,T
2023-04-11T21:59:18Z,qh2z8vvu,serial-reaction-time,1,P,4,1,32,2314,0,4,449.5999999642372,144,H
2023-04-11T21:59:19Z,qh2z8vvu,serial-reaction-time,1,R,4,1,33,2314,0,4,344.80000001192093,444,R
2023-04-11T21:59:19Z,qh2z8vvu,serial-reaction-time,1,P,4,1,34,2314,0,2,485.9000000357628,442,H
2023-04-11T21:59:20Z,qh2z8vvu,serial-reaction-time,1,R,4,1,35,2314,0,3,534,423,L
2023-04-11T21:59:21Z,qh2z8vvu,serial-reaction-time,1,P,4,1,36,2314,0,3,407.39999997615814,233,H
2023-04-11T21:59:21Z,qh2z8vvu,serial-reaction-time,1,R,4,1,37,2314,0,1,331.19999998807907,331,H
2023-04-11T21:59:22Z,qh2z8vvu,serial-reaction-time,1,P,4,1,38,2314,0,1,326.5999999642372,311,H
2023-04-11T21:59:22Z,qh2z8vvu,serial-reaction-time,1,R,4,1,39,2314,0,4,423.4000000357628,114,H
2023-04-11T21:59:23Z,qh2z8vvu,serial-reaction-time,1,P,4,1,40,2314,0,4,408.60000002384186,144,H
2023-04-11T21:59:23Z,qh2z8vvu,serial-reaction-time,1,R,4,1,41,2314,0,1,341.89999997615814,441,L
2023-04-11T21:59:24Z,qh2z8vvu,serial-reaction-time,1,P,4,1,42,2314,0,2,550.1000000238419,412,H
2023-04-11T21:59:24Z,qh2z8vvu,serial-reaction-time,1,R,4,1,43,2314,0,3,522.3999999761581,123,L
2023-04-11T21:59:25Z,qh2z8vvu,serial-reaction-time,1,P,4,1,44,2314,0,3,376.5999999642372,233,H
2023-04-11T21:59:25Z,qh2z8vvu,serial-reaction-time,1,R,4,1,45,2314,0,1,347,331,H
2023-04-11T21:59:26Z,qh2z8vvu,serial-reaction-time,1,P,4,1,46,2314,0,1,332.69999998807907,311,H
2023-04-11T21:59:26Z,qh2z8vvu,serial-reaction-time,1,R,4,1,47,2314,0,1,360.800000011921,111,R
2023-04-11T21:59:27Z,qh2z8vvu,serial-reaction-time,1,P,4,1,48,2314,0,4,448.0999999642372,114,H
2023-04-11T21:59:28Z,qh2z8vvu,serial-reaction-time,1,R,4,1,49,2314,0,2,411.5,142,L
2023-04-11T21:59:28Z,qh2z8vvu,serial-reaction-time,1,P,4,1,50,2314,0,2,375.5,422,H
2023-04-11T21:59:29Z,qh2z8vvu,serial-reaction-time,1,R,4,1,51,2314,0,3,508.5,223,H
2023-04-11T21:59:29Z,qh2z8vvu,serial-reaction-time,1,P,4,1,52,2314,0,3,279.80000001192093,233,H
2023-04-11T21:59:30Z,qh2z8vvu,serial-reaction-time,1,R,4,1,53,2314,0,3,393.300000011921,333,R
2023-04-11T21:59:30Z,qh2z8vvu,serial-reaction-time,1,P,4,1,54,2314,0,1,364.699999988079,331,H
2023-04-11T21:59:31Z,qh2z8vvu,serial-reaction-time,1,R,4,1,55,2314,0,2,615,312,L
2023-04-11T21:59:31Z,qh2z8vvu,serial-reaction-time,1,P,4,1,56,2314,0,4,481.800000011921,124,H
2023-04-11T21:59:32Z,qh2z8vvu,serial-reaction-time,1,R,4,1,57,2314,0,3,514,243,H
2023-04-11T21:59:33Z,qh2z8vvu,serial-reaction-time,1,P,4,1,58,2314,0,2,382.39999997615814,432,H
2023-04-11T21:59:33Z,qh2z8vvu,serial-reaction-time,1,R,4,1,59,2314,0,1,342.69999998807907,321,H
2023-04-11T21:59:34Z,qh2z8vvu,serial-reaction-time,1,P,4,1,60,2314,0,3,379.699999988079,213,H
2023-04-11T21:59:34Z,qh2z8vvu,serial-reaction-time,1,R,4,1,61,2314,0,4,480.89999997615814,134,H
2023-04-11T21:59:35Z,qh2z8vvu,serial-reaction-time,1,P,4,1,62,2314,0,1,409.7000000476837,341,H
2023-04-11T21:59:35Z,qh2z8vvu,serial-reaction-time,1,R,4,1,63,2314,0,2,391,412,H
2023-04-11T21:59:36Z,qh2z8vvu,serial-reaction-time,1,P,4,1,64,2314,0,4,463.39999997615814,124,H
2023-04-11T21:59:37Z,qh2z8vvu,serial-reaction-time,1,R,4,1,65,2314,0,2,540.9000000357628,242,T
2023-04-11T21:59:37Z,qh2z8vvu,serial-reaction-time,1,P,4,1,66,2314,0,2,361.4000000357628,422,H
2023-04-11T21:59:38Z,qh2z8vvu,serial-reaction-time,1,R,4,1,67,2314,0,4,464.5,224,L
2023-04-11T21:59:38Z,qh2z8vvu,serial-reaction-time,1,P,4,1,68,2314,0,3,610.3999999761581,243,H
2023-04-11T21:59:39Z,qh2z8vvu,serial-reaction-time,NA,R,4,1,69,2314,0,2,387.2000000476837,432,H
2023-04-11T21:59:39Z,qh2z8vvu,serial-reaction-time,1,R,4,0,69,2314,0,2,721.8000000119209,432,H
2023-04-11T21:59:40Z,qh2z8vvu,serial-reaction-time,1,P,4,1,70,2314,0,1,411.199999988079,321,H
2023-04-11T21:59:41Z,qh2z8vvu,serial-reaction-time,1,R,4,1,71,2314,0,4,625.5,214,L
2023-04-11T21:59:41Z,qh2z8vvu,serial-reaction-time,1,P,4,1,72,2314,0,4,361.7000000476837,144,H
2023-04-11T21:59:42Z,qh2z8vvu,serial-reaction-time,1,R,4,1,73,2314,0,4,388.39999997615814,444,R
2023-04-11T21:59:42Z,qh2z8vvu,serial-reaction-time,1,P,4,1,74,2314,0,2,432.39999997615814,442,H
2023-04-11T21:59:43Z,qh2z8vvu,serial-reaction-time,1,R,4,1,75,2314,0,1,433.300000011921,421,L
2023-04-11T21:59:43Z,qh2z8vvu,serial-reaction-time,1,P,4,1,76,2314,0,3,445.89999997615814,213,H
2023-04-11T21:59:44Z,qh2z8vvu,serial-reaction-time,1,R,4,1,77,2314,0,4,391.699999988079,134,H
2023-04-11T21:59:44Z,qh2z8vvu,serial-reaction-time,1,P,4,1,78,2314,0,1,384.10000002384186,341,H
2023-04-11T21:59:45Z,qh2z8vvu,serial-reaction-time,NA,R,4,1,79,2314,0,2,403.800000011921,412,H
2023-04-11T21:59:45Z,qh2z8vvu,serial-reaction-time,1,R,4,0,79,2314,0,2,693.8999999761581,412,H
2023-04-11T21:59:46Z,qh2z8vvu,serial-reaction-time,1,P,4,1,80,2314,0,4,581.5999999642372,124,H
2023-04-11T21:59:51Z,qh2z8vvu,html-keyboard-response,NA,NA,NA,NA,NA,NA,NA,NA,NA,NA,NA
2023-04-11T21:59:52Z,qh2z8vvu,html-keyboard-response,NA,NA,NA,NA,NA,NA,NA,NA,NA,NA,NA
2023-04-11T21:59:53Z,qh2z8vvu,serial-reaction-time,1,R,5,1,1,2314,0,2,328.39999997615814,2,X
2023-04-11T21:59:53Z,qh2z8vvu,serial-reaction-time,1,P,5,1,2,2314,0,2,280.5,22,X
2023-04-11T21:59:54Z,qh2z8vvu,serial-reaction-time,1,R,5,1,3,2314,0,1,420.199999988079,221,L
2023-04-11T21:59:54Z,qh2z8vvu,serial-reaction-time,1,P,5,1,4,2314,0,3,411,213,H
2023-04-11T21:59:55Z,qh2z8vvu,serial-reaction-time,1,R,5,1,5,2314,0,4,539,134,H
2023-04-11T21:59:56Z,qh2z8vvu,serial-reaction-time,1,P,5,1,6,2314,0,1,434.0999999642372,341,H
2023-04-11T21:59:56Z,qh2z8vvu,serial-reaction-time,1,R,5,1,7,2314,0,3,456.7999999523163,413,L
2023-04-11T21:59:57Z,qh2z8vvu,serial-reaction-time,1,P,5,1,8,2314,0,4,490,134,H
2023-04-11T21:59:57Z,qh2z8vvu,serial-reaction-time,1,R,5,1,9,2314,0,4,404.800000011921,344,L
2023-04-11T21:59:58Z,qh2z8vvu,serial-reaction-time,1,P,5,1,10,2314,0,2,421.9000000357628,442,H
2023-04-11T21:59:58Z,qh2z8vvu,serial-reaction-time,1,R,5,1,11,2314,0,4,119.89999997615814,424,T
2023-04-11T21:59:59Z,qh2z8vvu,serial-reaction-time,1,P,5,1,12,2314,0,3,661.8000000119209,243,H
2023-04-11T22:00:00Z,qh2z8vvu,serial-reaction-time,1,R,5,1,13,2314,0,3,416.4000000357628,433,L
2023-04-11T22:00:00Z,qh2z8vvu,serial-reaction-time,1,P,5,1,14,2314,0,1,420,331,H
2023-04-11T22:00:01Z,qh2z8vvu,serial-reaction-time,1,R,5,1,15,2314,0,2,483.800000011921,312,L
2023-04-11T22:00:01Z,qh2z8vvu,serial-reaction-time,NA,P,5,1,16,2314,0,4,534.6000000238419,124,H
2023-04-11T22:00:02Z,qh2z8vvu,serial-reaction-time,1,P,5,0,16,2314,0,4,860.1000000238419,124,H
2023-04-11T22:00:03Z,qh2z8vvu,serial-reaction-time,NA,R,5,1,17,2314,0,1,821.8000000119209,241,L
2023-04-11T22:00:03Z,qh2z8vvu,serial-reaction-time,NA,R,5,0,17,2314,0,1,1266.0000000596046,241,L
2023-04-11T22:00:04Z,qh2z8vvu,serial-reaction-time,1,R,5,0,17,2314,0,1,1601.9000000953674,241,L
2023-04-11T22:00:04Z,qh2z8vvu,serial-reaction-time,1,P,5,1,18,2314,0,2,540.1000000238419,412,H
2023-04-11T22:00:05Z,qh2z8vvu,serial-reaction-time,1,R,5,1,19,2314,0,3,673.3000000119209,123,L
2023-04-11T22:00:06Z,qh2z8vvu,serial-reaction-time,1,P,5,1,20,2314,0,3,431,233,H
2023-04-11T22:00:06Z,qh2z8vvu,serial-reaction-time,NA,R,5,1,21,2314,0,2,424.10000002384186,332,L
2023-04-11T22:00:06Z,qh2z8vvu,serial-reaction-time,1,R,5,0,21,2314,0,2,701.8000000119209,332,L
2023-04-11T22:00:07Z,qh2z8vvu,serial-reaction-time,1,P,5,1,22,2314,0,1,456.300000011921,321,H
2023-04-11T22:00:08Z,qh2z8vvu,serial-reaction-time,1,R,5,1,23,2314,0,3,386.4000000357628,213,H
2023-04-11T22:00:08Z,qh2z8vvu,serial-reaction-time,1,P,5,1,24,2314,0,4,437.0999999642372,134,H
2023-04-11T22:00:09Z,qh2z8vvu,serial-reaction-time,1,R,5,1,25,2314,0,1,402,341,H
2023-04-11T22:00:09Z,qh2z8vvu,serial-reaction-time,1,P,5,1,26,2314,0,2,432.300000011921,412,H
2023-04-11T22:00:10Z,qh2z8vvu,serial-reaction-time,1,R,5,1,27,2314,0,1,550,121,T
2023-04-11T22:00:10Z,qh2z8vvu,serial-reaction-time,1,P,5,1,28,2314,0,3,418.800000011921,213,H
2023-04-11T22:00:11Z,qh2z8vvu,serial-reaction-time,1,R,5,1,29,2314,0,4,454.199999988079,134,H
2023-04-11T22:00:11Z,qh2z8vvu,serial-reaction-time,1,P,5,1,30,2314,0,1,347.89999997615814,341,H
2023-04-11T22:00:12Z,qh2z8vvu,serial-reaction-time,1,R,5,1,31,2314,0,4,465.699999988079,414,T
2023-04-11T22:00:13Z,qh2z8vvu,serial-reaction-time,1,P,5,1,32,2314,0,4,348.5,144,H
2023-04-11T22:00:13Z,qh2z8vvu,serial-reaction-time,1,R,5,1,33,2314,0,1,392.0999999642372,441,L
2023-04-11T22:00:14Z,qh2z8vvu,serial-reaction-time,NA,P,5,1,34,2314,0,2,365.39999997615814,412,H
2023-04-11T22:00:14Z,qh2z8vvu,serial-reaction-time,1,P,5,0,34,2314,0,2,597.3999999761581,412,H
2023-04-11T22:00:15Z,qh2z8vvu,serial-reaction-time,1,R,5,1,35,2314,0,4,580.1999999880791,124,H
2023-04-11T22:00:15Z,qh2z8vvu,serial-reaction-time,1,P,5,1,36,2314,0,3,484.199999988079,243,H
2023-04-11T22:00:16Z,qh2z8vvu,serial-reaction-time,1,R,5,1,37,2314,0,1,447.699999988079,431,L
2023-04-11T22:00:16Z,qh2z8vvu,serial-reaction-time,1,P,5,1,38,2314,0,1,347,311,H
2023-04-11T22:00:17Z,qh2z8vvu,serial-reaction-time,1,R,5,1,39,2314,0,2,457.0999999642372,112,L
2023-04-11T22:00:17Z,qh2z8vvu,serial-reaction-time,1,P,5,1,40,2314,0,4,393.5999999642372,124,H
2023-04-11T22:00:18Z,qh2z8vvu,serial-reaction-time,1,R,5,1,41,2314,0,1,402.699999988079,241,L
2023-04-11T22:00:18Z,qh2z8vvu,serial-reaction-time,1,P,5,1,42,2314,0,2,386.7000000476837,412,H
2023-04-11T22:00:19Z,qh2z8vvu,serial-reaction-time,1,R,5,1,43,2314,0,3,490.5,123,L
2023-04-11T22:00:20Z,qh2z8vvu,serial-reaction-time,1,P,5,1,44,2314,0,3,419.2000000476837,233,H
2023-04-11T22:00:20Z,qh2z8vvu,serial-reaction-time,1,R,5,1,45,2314,0,4,400.5999999642372,334,L
2023-04-11T22:00:21Z,qh2z8vvu,serial-reaction-time,1,P,5,1,46,2314,0,1,315.2000000476837,341,H
2023-04-11T22:00:21Z,qh2z8vvu,serial-reaction-time,NA,R,5,1,47,2314,0,2,397.2999999523163,412,H
2023-04-11T22:00:21Z,qh2z8vvu,serial-reaction-time,1,R,5,0,47,2314,0,2,680.1999999880791,412,H
2023-04-11T22:00:22Z,qh2z8vvu,serial-reaction-time,1,P,5,1,48,2314,0,4,439,124,H
2023-04-11T22:00:22Z,qh2z8vvu,serial-reaction-time,1,R,5,1,49,2314,0,1,324.5,241,L
2023-04-11T22:00:23Z,qh2z8vvu,serial-reaction-time,NA,P,5,1,50,2314,0,2,400.89999997615814,412,H
2023-04-11T22:00:23Z,qh2z8vvu,serial-reaction-time,1,P,5,0,50,2314,0,2,498.7999999523163,412,H
2023-04-11T22:00:24Z,qh2z8vvu,serial-reaction-time,1,R,5,1,51,2314,0,1,495.300000011921,121,T
2023-04-11T22:00:24Z,qh2z8vvu,serial-reaction-time,1,P,5,1,52,2314,0,3,597.5,213,H
2023-04-11T22:00:25Z,qh2z8vvu,serial-reaction-time,1,R,5,1,53,2314,0,1,357.9000000357628,131,T
2023-04-11T22:00:25Z,qh2z8vvu,serial-reaction-time,1,P,5,1,54,2314,0,1,374.0999999642372,311,H
2023-04-11T22:00:26Z,qh2z8vvu,serial-reaction-time,1,R,5,1,55,2314,0,4,534.5,114,H
2023-04-11T22:00:27Z,qh2z8vvu,serial-reaction-time,1,P,5,1,56,2314,0,4,393.0999999642372,144,H
2023-04-11T22:00:27Z,qh2z8vvu,serial-reaction-time,1,R,5,1,57,2314,0,3,498.800000011921,443,L
2023-04-11T22:00:28Z,qh2z8vvu,serial-reaction-time,1,P,5,1,58,2314,0,2,439.5,432,H
2023-04-11T22:00:28Z,qh2z8vvu,serial-reaction-time,1,R,5,1,59,2314,0,3,467.5,323,T
2023-04-11T22:00:29Z,qh2z8vvu,serial-reaction-time,1,P,5,1,60,2314,0,3,509.5,233,H
2023-04-11T22:00:30Z,qh2z8vvu,serial-reaction-time,1,R,5,1,61,2314,0,4,474.300000011921,334,L
2023-04-11T22:00:30Z,qh2z8vvu,serial-reaction-time,1,P,5,1,62,2314,0,1,394.39999997615814,341,H
2023-04-11T22:00:31Z,qh2z8vvu,serial-reaction-time,1,R,5,1,63,2314,0,3,442.2000000476837,413,L
2023-04-11T22:00:31Z,qh2z8vvu,serial-reaction-time,1,P,5,1,64,2314,0,4,486,134,H
2023-04-11T22:00:32Z,qh2z8vvu,serial-reaction-time,1,R,5,1,65,2314,0,2,373.199999988079,342,L
2023-04-11T22:00:32Z,qh2z8vvu,serial-reaction-time,1,P,5,1,66,2314,0,2,469.199999988079,422,H
2023-04-11T22:00:33Z,qh2z8vvu,serial-reaction-time,1,R,5,1,67,2314,0,4,365.9000000357628,224,L
2023-04-11T22:00:34Z,qh2z8vvu,serial-reaction-time,1,P,5,1,68,2314,0,3,536.6000000238419,243,H
2023-04-11T22:00:34Z,qh2z8vvu,serial-reaction-time,1,R,5,1,69,2314,0,3,389.9000000357628,433,L
2023-04-11T22:00:35Z,qh2z8vvu,serial-reaction-time,1,P,5,1,70,2314,0,1,349.30000001192093,331,H
2023-04-11T22:00:35Z,qh2z8vvu,serial-reaction-time,1,R,5,1,71,2314,0,3,493.300000011921,313,T
2023-04-11T22:00:36Z,qh2z8vvu,serial-reaction-time,1,P,5,1,72,2314,0,4,375.0999999642372,134,H
2023-04-11T22:00:36Z,qh2z8vvu,serial-reaction-time,1,R,5,1,73,2314,0,3,549.4000000357628,343,T
2023-04-11T22:00:37Z,qh2z8vvu,serial-reaction-time,1,P,5,1,74,2314,0,2,434.9000000357628,432,H
2023-04-11T22:00:37Z,qh2z8vvu,serial-reaction-time,1,R,5,1,75,2314,0,1,356.4000000357628,321,H
2023-04-11T22:00:38Z,qh2z8vvu,serial-reaction-time,1,P,5,1,76,2314,0,3,372.699999988079,213,H
2023-04-11T22:00:39Z,qh2z8vvu,serial-reaction-time,1,R,5,1,77,2314,0,3,380.800000011921,133,L
2023-04-11T22:00:39Z,qh2z8vvu,serial-reaction-time,1,P,5,1,78,2314,0,1,386.699999988079,331,H
2023-04-11T22:00:40Z,qh2z8vvu,serial-reaction-time,1,R,5,1,79,2314,0,4,429.5999999642372,314,L
2023-04-11T22:00:40Z,qh2z8vvu,serial-reaction-time,1,P,5,1,80,2314,0,4,402.39999997615814,144,H
2023-04-11T22:00:45Z,qh2z8vvu,html-keyboard-response,NA,NA,NA,NA,NA,NA,NA,NA,NA,NA,NA
2023-04-11T22:00:45Z,qh2z8vvu,html-keyboard-response,NA,NA,NA,NA,NA,NA,NA,NA,NA,NA,NA
2023-04-11T22:00:47Z,qh2z8vvu,serial-reaction-time,1,R,6,1,1,2314,0,3,455,3,X
2023-04-11T22:00:47Z,qh2z8vvu,serial-reaction-time,1,P,6,1,2,2314,0,2,442.10000002384186,32,X
2023-04-11T22:00:48Z,qh2z8vvu,serial-reaction-time,1,R,6,1,3,2314,0,4,507.800000011921,324,L
2023-04-11T22:00:49Z,qh2z8vvu,serial-reaction-time,1,P,6,1,4,2314,0,3,562.1000000238419,243,H
2023-04-11T22:00:49Z,qh2z8vvu,serial-reaction-time,1,R,6,1,5,2314,0,4,440.5999999642372,434,T
2023-04-11T22:00:50Z,qh2z8vvu,serial-reaction-time,1,P,6,1,6,2314,0,1,434.300000011921,341,H
2023-04-11T22:00:50Z,qh2z8vvu,serial-reaction-time,1,R,6,1,7,2314,0,2,443.199999988079,412,H
2023-04-11T22:00:51Z,qh2z8vvu,serial-reaction-time,1,P,6,1,8,2314,0,4,450.4000000357628,124,H
2023-04-11T22:00:51Z,qh2z8vvu,serial-reaction-time,1,R,6,1,9,2314,0,4,366.7000000476837,244,L
2023-04-11T22:00:52Z,qh2z8vvu,serial-reaction-time,1,P,6,1,10,2314,0,2,399.10000002384186,442,H
2023-04-11T22:00:52Z,qh2z8vvu,serial-reaction-time,1,R,6,1,11,2314,0,3,429.800000011921,423,L
2023-04-11T22:00:53Z,qh2z8vvu,serial-reaction-time,1,P,6,1,12,2314,0,3,361.800000011921,233,H
2023-04-11T22:00:53Z,qh2z8vvu,serial-reaction-time,1,R,6,1,13,2314,0,3,357.89999997615814,333,R
2023-04-11T22:00:54Z,qh2z8vvu,serial-reaction-time,1,P,6,1,14,2314,0,1,407.800000011921,331,H
2023-04-11T22:00:55Z,qh2z8vvu,serial-reaction-time,1,R,6,1,15,2314,0,4,574.2999999523163,314,L
2023-04-11T22:00:55Z,qh2z8vvu,serial-reaction-time,1,P,6,1,16,2314,0,4,321.30000001192093,144,H
2023-04-11T22:00:56Z,qh2z8vvu,serial-reaction-time,1,R,6,1,17,2314,0,2,366.4000000357628,442,H
2023-04-11T22:00:56Z,qh2z8vvu,serial-reaction-time,1,P,6,1,18,2314,0,2,257.10000002384186,422,H
2023-04-11T22:00:57Z,qh2z8vvu,serial-reaction-time,1,R,6,1,19,2314,0,3,364.60000002384186,223,H
2023-04-11T22:00:57Z,qh2z8vvu,serial-reaction-time,1,P,6,1,20,2314,0,3,373.800000011921,233,H
2023-04-11T22:00:57Z,qh2z8vvu,serial-reaction-time,NA,R,6,1,21,2314,0,2,337.60000002384186,332,L
2023-04-11T22:00:58Z,qh2z8vvu,serial-reaction-time,1,R,6,0,21,2314,0,2,712.3000000119209,332,L
2023-04-11T22:00:58Z,qh2z8vvu,serial-reaction-time,1,P,6,1,22,2314,0,1,451.10000002384186,321,H
2023-04-11T22:00:59Z,qh2z8vvu,serial-reaction-time,1,R,6,1,23,2314,0,3,387.0999999642372,213,H
2023-04-11T22:01:00Z,qh2z8vvu,serial-reaction-time,1,P,6,1,24,2314,0,4,396.10000002384186,134,H
2023-04-11T22:01:00Z,qh2z8vvu,serial-reaction-time,1,R,6,1,25,2314,0,3,506.0999999642372,343,T
2023-04-11T22:01:01Z,qh2z8vvu,serial-reaction-time,1,P,6,1,26,2314,0,2,384.300000011921,432,H
2023-04-11T22:01:01Z,qh2z8vvu,serial-reaction-time,1,R,6,1,27,2314,0,4,381.800000011921,324,L
2023-04-11T22:01:02Z,qh2z8vvu,serial-reaction-time,1,P,6,1,28,2314,0,3,599.9000000357628,243,H
2023-04-11T22:01:03Z,qh2z8vvu,serial-reaction-time,1,R,6,1,29,2314,0,2,481.699999988079,432,H
2023-04-11T22:01:03Z,qh2z8vvu,serial-reaction-time,1,P,6,1,30,2314,0,1,380.2000000476837,321,H
2023-04-11T22:01:04Z,qh2z8vvu,serial-reaction-time,1,R,6,1,31,2314,0,3,370.800000011921,213,H
2023-04-11T22:01:04Z,qh2z8vvu,serial-reaction-time,1,P,6,1,32,2314,0,4,372,134,H
2023-04-11T22:01:05Z,qh2z8vvu,serial-reaction-time,1,R,6,1,33,2314,0,3,584.5,343,T
2023-04-11T22:01:05Z,qh2z8vvu,serial-reaction-time,1,P,6,1,34,2314,0,2,461.10000002384186,432,H
2023-04-11T22:01:06Z,qh2z8vvu,serial-reaction-time,1,R,6,1,35,2314,0,2,352.5,322,L
2023-04-11T22:01:06Z,qh2z8vvu,serial-reaction-time,NA,P,6,1,36,2314,0,3,424.800000011921,223,H
2023-04-11T22:01:07Z,qh2z8vvu,serial-reaction-time,1,P,6,0,36,2314,0,3,687.1000000238419,223,H
2023-04-11T22:01:07Z,qh2z8vvu,serial-reaction-time,1,R,6,1,37,2314,0,2,431.10000002384186,232,T
2023-04-11T22:01:08Z,qh2z8vvu,serial-reaction-time,1,P,6,1,38,2314,0,1,435.699999988079,321,H
2023-04-11T22:01:08Z,qh2z8vvu,serial-reaction-time,1,R,6,1,39,2314,0,3,396.89999997615814,213,H
2023-04-11T22:01:09Z,qh2z8vvu,serial-reaction-time,1,P,6,1,40,2314,0,4,353.5,134,H
2023-04-11T22:01:09Z,qh2z8vvu,serial-reaction-time,1,R,6,1,41,2314,0,3,493.699999988079,343,T
2023-04-11T22:01:10Z,qh2z8vvu,serial-reaction-time,1,P,6,1,42,2314,0,2,324.19999998807907,432,H
2023-04-11T22:01:10Z,qh2z8vvu,serial-reaction-time,1,R,6,1,43,2314,0,3,409.5,323,T
2023-04-11T22:01:11Z,qh2z8vvu,serial-reaction-time,1,P,6,1,44,2314,0,3,497.10000002384186,233,H
2023-04-11T22:01:12Z,qh2z8vvu,serial-reaction-time,1,R,6,1,45,2314,0,1,433.5,331,H
2023-04-11T22:01:12Z,qh2z8vvu,serial-reaction-time,1,P,6,1,46,2314,0,1,333.19999998807907,311,H
2023-04-11T22:01:13Z,qh2z8vvu,serial-reaction-time,NA,R,6,1,47,2314,0,3,361.699999988079,113,L
2023-04-11T22:01:13Z,qh2z8vvu,serial-reaction-time,1,R,6,0,47,2314,0,3,701,113,L
2023-04-11T22:01:13Z,qh2z8vvu,serial-reaction-time,1,P,6,1,48,2314,0,4,398,134,H
2023-04-11T22:01:14Z,qh2z8vvu,serial-reaction-time,1,R,6,1,49,2314,0,3,451,343,T
2023-04-11T22:01:15Z,qh2z8vvu,serial-reaction-time,1,P,6,1,50,2314,0,2,373.699999988079,432,H
2023-04-11T22:01:15Z,qh2z8vvu,serial-reaction-time,1,R,6,1,51,2314,0,1,377.800000011921,321,H
2023-04-11T22:01:16Z,qh2z8vvu,serial-reaction-time,1,P,6,1,52,2314,0,3,402.10000002384186,213,H
2023-04-11T22:01:16Z,qh2z8vvu,serial-reaction-time,1,R,6,1,53,2314,0,1,332.80000001192093,131,T
2023-04-11T22:01:17Z,qh2z8vvu,serial-reaction-time,1,P,6,1,54,2314,0,1,426.0999999642372,311,H
2023-04-11T22:01:17Z,qh2z8vvu,serial-reaction-time,1,R,6,1,55,2314,0,3,405.199999988079,113,L
2023-04-11T22:01:18Z,qh2z8vvu,serial-reaction-time,1,P,6,1,56,2314,0,4,476.5,134,H
2023-04-11T22:01:18Z,qh2z8vvu,serial-reaction-time,1,R,6,1,57,2314,0,2,392.5999999642372,342,L
2023-04-11T22:01:19Z,qh2z8vvu,serial-reaction-time,1,P,6,1,58,2314,0,2,369.2999999523163,422,H
2023-04-11T22:01:19Z,qh2z8vvu,serial-reaction-time,1,R,6,1,59,2314,0,2,326.5,222,R
2023-04-11T22:01:20Z,qh2z8vvu,serial-reaction-time,NA,P,6,1,60,2314,0,3,391.2999999523163,223,H
2023-04-11T22:01:20Z,qh2z8vvu,serial-reaction-time,1,P,6,0,60,2314,0,3,623.5999999046326,223,H
2023-04-11T22:01:21Z,qh2z8vvu,serial-reaction-time,1,R,6,1,61,2314,0,3,392.699999988079,233,H
2023-04-11T22:01:21Z,qh2z8vvu,serial-reaction-time,1,P,6,1,62,2314,0,1,417.9000000357628,331,H
2023-04-11T22:01:22Z,qh2z8vvu,serial-reaction-time,NA,R,6,1,63,2314,0,4,345.9000000357628,314,L
2023-04-11T22:01:22Z,qh2z8vvu,serial-reaction-time,1,R,6,0,63,2314,0,4,599.6000000238419,314,L
2023-04-11T22:01:22Z,qh2z8vvu,serial-reaction-time,1,P,6,1,64,2314,0,4,288.89999997615814,144,H
2023-04-11T22:01:23Z,qh2z8vvu,serial-reaction-time,1,R,6,1,65,2314,0,2,472,442,H
2023-04-11T22:01:23Z,qh2z8vvu,serial-reaction-time,1,P,6,1,66,2314,0,2,295.0999999642372,422,H
2023-04-11T22:01:24Z,qh2z8vvu,serial-reaction-time,1,R,6,1,67,2314,0,1,502.699999988079,221,L
2023-04-11T22:01:24Z,qh2z8vvu,serial-reaction-time,1,P,6,1,68,2314,0,3,373.5999999642372,213,H
2023-04-11T22:01:25Z,qh2z8vvu,serial-reaction-time,1,R,6,1,69,2314,0,3,356.9000000357628,133,L
2023-04-11T22:01:25Z,qh2z8vvu,serial-reaction-time,1,P,6,1,70,2314,0,1,322.7000000476837,331,H
2023-04-11T22:01:26Z,qh2z8vvu,serial-reaction-time,1,R,6,1,71,2314,0,3,284.39999997615814,313,T
2023-04-11T22:01:26Z,qh2z8vvu,serial-reaction-time,1,P,6,1,72,2314,0,4,466.199999988079,134,H
2023-04-11T22:01:27Z,qh2z8vvu,serial-reaction-time,1,R,6,1,73,2314,0,3,389,343,T
2023-04-11T22:01:27Z,qh2z8vvu,serial-reaction-time,1,P,6,1,74,2314,0,2,302.7999999523163,432,H
2023-04-11T22:01:28Z,qh2z8vvu,serial-reaction-time,1,R,6,1,75,2314,0,1,243.60000002384183,321,H
2023-04-11T22:01:28Z,qh2z8vvu,serial-reaction-time,1,P,6,1,76,2314,0,3,318,213,H
2023-04-11T22:01:29Z,qh2z8vvu,serial-reaction-time,NA,R,6,1,77,2314,0,3,330,133,L
2023-04-11T22:01:29Z,qh2z8vvu,serial-reaction-time,1,R,6,0,77,2314,0,3,657.6999999880791,133,L
2023-04-11T22:01:30Z,qh2z8vvu,serial-reaction-time,1,P,6,1,78,2314,0,1,476.2000000476837,331,H
2023-04-11T22:01:30Z,qh2z8vvu,serial-reaction-time,1,R,6,1,79,2314,0,3,422.60000002384186,313,T
2023-04-11T22:01:31Z,qh2z8vvu,serial-reaction-time,1,P,6,1,80,2314,0,4,462.2000000476837,134,H
2023-04-11T22:01:36Z,qh2z8vvu,html-keyboard-response,NA,NA,NA,NA,NA,NA,NA,NA,NA,NA,NA
2023-04-11T22:01:36Z,qh2z8vvu,html-keyboard-response,NA,NA,NA,NA,NA,NA,NA,NA,NA,NA,NA
2023-04-11T22:01:37Z,qh2z8vvu,serial-reaction-time,1,R,7,1,1,2314,0,3,554.5999999642372,3,X
2023-04-11T22:01:38Z,qh2z8vvu,serial-reaction-time,NA,P,7,1,2,2314,0,2,367,32,X
2023-04-11T22:01:38Z,qh2z8vvu,serial-reaction-time,1,P,7,0,2,2314,0,2,398.7000000476837,32,X
2023-04-11T22:01:39Z,qh2z8vvu,serial-reaction-time,1,R,7,1,3,2314,0,3,498.300000011921,323,T
2023-04-11T22:01:39Z,qh2z8vvu,serial-reaction-time,1,P,7,1,4,2314,0,3,341.30000001192093,233,H
2023-04-11T22:01:40Z,qh2z8vvu,serial-reaction-time,1,R,7,1,5,2314,0,1,380.60000002384186,331,H
2023-04-11T22:01:40Z,qh2z8vvu,serial-reaction-time,1,P,7,1,6,2314,0,1,323.69999998807907,311,H
2023-04-11T22:01:41Z,qh2z8vvu,serial-reaction-time,1,R,7,1,7,2314,0,2,478.39999997615814,112,L
2023-04-11T22:01:41Z,qh2z8vvu,serial-reaction-time,NA,P,7,1,8,2314,0,4,440.2999999523163,124,H
2023-04-11T22:01:42Z,qh2z8vvu,serial-reaction-time,1,P,7,0,8,2314,0,4,734.3999999761581,124,H
2023-04-11T22:01:42Z,qh2z8vvu,serial-reaction-time,1,R,7,1,9,2314,0,2,537.3999999761581,242,T
2023-04-11T22:01:43Z,qh2z8vvu,serial-reaction-time,1,P,7,1,10,2314,0,2,356.69999998807907,422,H
2023-04-11T22:01:43Z,qh2z8vvu,serial-reaction-time,1,R,7,1,11,2314,0,4,417,224,L
2023-04-11T22:01:44Z,qh2z8vvu,serial-reaction-time,1,P,7,1,12,2314,0,3,464.10000002384186,243,H
2023-04-11T22:01:44Z,qh2z8vvu,serial-reaction-time,1,R,7,1,13,2314,0,3,459.5,433,L
2023-04-11T22:01:45Z,qh2z8vvu,serial-reaction-time,1,P,7,1,14,2314,0,1,404,331,H
2023-04-11T22:01:46Z,qh2z8vvu,serial-reaction-time,1,R,7,1,15,2314,0,3,406.5,313,T
2023-04-11T22:01:46Z,qh2z8vvu,serial-reaction-time,1,P,7,1,16,2314,0,4,359.30000001192093,134,H
2023-04-11T22:01:47Z,qh2z8vvu,serial-reaction-time,1,R,7,1,17,2314,0,4,341.4000000357628,344,L
2023-04-11T22:01:47Z,qh2z8vvu,serial-reaction-time,1,P,7,1,18,2314,0,2,332.30000001192093,442,H
2023-04-11T22:01:48Z,qh2z8vvu,serial-reaction-time,1,R,7,1,19,2314,0,4,578.2000000476837,424,T
2023-04-11T22:01:48Z,qh2z8vvu,serial-reaction-time,1,P,7,1,20,2314,0,3,653,243,H
2023-04-11T22:01:49Z,qh2z8vvu,serial-reaction-time,1,R,7,1,21,2314,0,4,414.10000002384186,434,T
2023-04-11T22:01:50Z,qh2z8vvu,serial-reaction-time,1,P,7,1,22,2314,0,1,519.6000000238419,341,H
2023-04-11T22:01:50Z,qh2z8vvu,serial-reaction-time,1,R,7,1,23,2314,0,3,408,413,L
2023-04-11T22:01:51Z,qh2z8vvu,serial-reaction-time,1,P,7,1,24,2314,0,4,377.300000011921,134,H
2023-04-11T22:01:51Z,qh2z8vvu,serial-reaction-time,1,R,7,1,25,2314,0,1,438.39999997615814,341,H
2023-04-11T22:01:52Z,qh2z8vvu,serial-reaction-time,NA,P,7,1,26,2314,0,2,514.3999999761581,412,H
2023-04-11T22:01:52Z,qh2z8vvu,serial-reaction-time,1,P,7,0,26,2314,0,2,640,412,H
2023-04-11T22:01:53Z,qh2z8vvu,serial-reaction-time,1,R,7,1,27,2314,0,2,387.7999999523163,122,L
2023-04-11T22:01:53Z,qh2z8vvu,serial-reaction-time,1,P,7,1,28,2314,0,3,475.800000011921,223,H
2023-04-11T22:01:54Z,qh2z8vvu,serial-reaction-time,1,R,7,1,29,2314,0,3,399.2999999523163,233,H
2023-04-11T22:01:54Z,qh2z8vvu,serial-reaction-time,1,P,7,1,30,2314,0,1,413.60000002384186,331,H
2023-04-11T22:01:55Z,qh2z8vvu,serial-reaction-time,1,R,7,1,31,2314,0,2,517.8000000119209,312,L
2023-04-11T22:01:56Z,qh2z8vvu,serial-reaction-time,1,P,7,1,32,2314,0,4,475.699999988079,124,H
2023-04-11T22:01:56Z,qh2z8vvu,serial-reaction-time,1,R,7,1,33,2314,0,1,484.699999988079,241,L
2023-04-11T22:01:57Z,qh2z8vvu,serial-reaction-time,1,P,7,1,34,2314,0,2,460.800000011921,412,H
2023-04-11T22:01:57Z,qh2z8vvu,serial-reaction-time,1,R,7,1,35,2314,0,3,410.10000002384186,123,L
2023-04-11T22:01:58Z,qh2z8vvu,serial-reaction-time,1,P,7,1,36,2314,0,3,468.300000011921,233,H
2023-04-11T22:01:58Z,qh2z8vvu,serial-reaction-time,1,R,7,1,37,2314,0,1,339.9000000357628,331,H
2023-04-11T22:01:59Z,qh2z8vvu,serial-reaction-time,1,P,7,1,38,2314,0,1,292.5999999642372,311,H
2023-04-11T22:01:59Z,qh2z8vvu,serial-reaction-time,1,R,7,1,39,2314,0,1,456.10000002384186,111,R
2023-04-11T22:02:00Z,qh2z8vvu,serial-reaction-time,1,P,7,1,40,2314,0,4,444.9000000357628,114,H
2023-04-11T22:02:00Z,qh2z8vvu,serial-reaction-time,1,R,7,1,41,2314,0,1,397.7999999523163,141,T
2023-04-11T22:02:01Z,qh2z8vvu,serial-reaction-time,NA,P,7,1,42,2314,0,2,482,412,H
2023-04-11T22:02:01Z,qh2z8vvu,serial-reaction-time,1,P,7,0,42,2314,0,2,686.7000000476837,412,H
2023-04-11T22:02:02Z,qh2z8vvu,serial-reaction-time,1,R,7,1,43,2314,0,2,385.300000011921,122,L
2023-04-11T22:02:02Z,qh2z8vvu,serial-reaction-time,1,P,7,1,44,2314,0,3,421.199999988079,223,H
2023-04-11T22:02:03Z,qh2z8vvu,serial-reaction-time,1,R,7,1,45,2314,0,1,392,231,L
2023-04-11T22:02:03Z,qh2z8vvu,serial-reaction-time,1,P,7,1,46,2314,0,1,354.60000002384186,311,H
2023-04-11T22:02:04Z,qh2z8vvu,serial-reaction-time,1,R,7,1,47,2314,0,2,786,112,L
2023-04-11T22:02:05Z,qh2z8vvu,serial-reaction-time,NA,P,7,1,48,2314,0,4,684.8000000119209,124,H
2023-04-11T22:02:05Z,qh2z8vvu,serial-reaction-time,1,P,7,0,48,2314,0,4,917,124,H
2023-04-11T22:02:06Z,qh2z8vvu,serial-reaction-time,1,R,7,1,49,2314,0,1,401.4000000357628,241,L
2023-04-11T22:02:07Z,qh2z8vvu,serial-reaction-time,1,P,7,1,50,2314,0,2,617,412,H
2023-04-11T22:02:07Z,qh2z8vvu,serial-reaction-time,1,R,7,1,51,2314,0,2,219.80000001192093,122,L
2023-04-11T22:02:08Z,qh2z8vvu,serial-reaction-time,1,P,7,1,52,2314,0,3,615.0999999642372,223,H
2023-04-11T22:02:08Z,qh2z8vvu,serial-reaction-time,1,R,7,1,53,2314,0,3,252.5,233,H
2023-04-11T22:02:09Z,qh2z8vvu,serial-reaction-time,1,P,7,1,54,2314,0,1,321.2999999523163,331,H
2023-04-11T22:02:09Z,qh2z8vvu,serial-reaction-time,NA,R,7,1,55,2314,0,2,281.19999998807907,312,L
2023-04-11T22:02:09Z,qh2z8vvu,serial-reaction-time,1,R,7,0,55,2314,0,2,682.0999999642372,312,L
2023-04-11T22:02:10Z,qh2z8vvu,serial-reaction-time,1,P,7,1,56,2314,0,4,459,124,H
2023-04-11T22:02:11Z,qh2z8vvu,serial-reaction-time,1,R,7,1,57,2314,0,3,574.5,243,H
2023-04-11T22:02:11Z,qh2z8vvu,serial-reaction-time,1,P,7,1,58,2314,0,2,389.699999988079,432,H
2023-04-11T22:02:12Z,qh2z8vvu,serial-reaction-time,1,R,7,1,59,2314,0,1,296.69999998807907,321,H
2023-04-11T22:02:12Z,qh2z8vvu,serial-reaction-time,1,P,7,1,60,2314,0,3,388.9000000357628,213,H
2023-04-11T22:02:13Z,qh2z8vvu,serial-reaction-time,1,R,7,1,61,2314,0,4,373.300000011921,134,H
2023-04-11T22:02:13Z,qh2z8vvu,serial-reaction-time,1,P,7,1,62,2314,0,1,436.0999999642372,341,H
2023-04-11T22:02:14Z,qh2z8vvu,serial-reaction-time,1,R,7,1,63,2314,0,3,409.60000002384186,413,L
2023-04-11T22:02:14Z,qh2z8vvu,serial-reaction-time,1,P,7,1,64,2314,0,4,344.60000002384186,134,H
2023-04-11T22:02:15Z,qh2z8vvu,serial-reaction-time,1,R,7,1,65,2314,0,1,478,341,H
2023-04-11T22:02:15Z,qh2z8vvu,serial-reaction-time,1,P,7,1,66,2314,0,2,320.5999999642372,412,H
2023-04-11T22:02:16Z,qh2z8vvu,serial-reaction-time,1,R,7,1,67,2314,0,1,442.300000011921,121,T
2023-04-11T22:02:17Z,qh2z8vvu,serial-reaction-time,NA,P,7,1,68,2314,0,3,557.6999999880791,213,H
2023-04-11T22:02:17Z,qh2z8vvu,serial-reaction-time,NA,P,7,0,68,2314,0,3,871.5,213,H
2023-04-11T22:02:17Z,qh2z8vvu,serial-reaction-time,1,P,7,0,68,2314,0,3,1089.2999999523165,213,H
2023-04-11T22:02:18Z,qh2z8vvu,serial-reaction-time,1,R,7,1,69,2314,0,4,507.5,134,H
2023-04-11T22:02:18Z,qh2z8vvu,serial-reaction-time,1,P,7,1,70,2314,0,1,455.5,341,H
2023-04-11T22:02:19Z,qh2z8vvu,serial-reaction-time,1,R,7,1,71,2314,0,2,565.1000000238419,412,H
2023-04-11T22:02:20Z,qh2z8vvu,serial-reaction-time,1,P,7,1,72,2314,0,4,546.4000000357628,124,H
2023-04-11T22:02:20Z,qh2z8vvu,serial-reaction-time,1,R,7,1,73,2314,0,4,424.10000002384186,244,L
2023-04-11T22:02:21Z,qh2z8vvu,serial-reaction-time,1,P,7,1,74,2314,0,2,520.9000000357628,442,H
2023-04-11T22:02:22Z,qh2z8vvu,serial-reaction-time,1,R,7,1,75,2314,0,3,684,423,L
2023-04-11T22:02:22Z,qh2z8vvu,serial-reaction-time,1,P,7,1,76,2314,0,3,404.699999988079,233,H
2023-04-11T22:02:23Z,qh2z8vvu,serial-reaction-time,1,R,7,1,77,2314,0,2,393.699999988079,332,L
2023-04-11T22:02:23Z,qh2z8vvu,serial-reaction-time,1,P,7,1,78,2314,0,1,489.699999988079,321,H
2023-04-11T22:02:24Z,qh2z8vvu,serial-reaction-time,1,R,7,1,79,2314,0,1,328.5,211,L
2023-04-11T22:02:24Z,qh2z8vvu,serial-reaction-time,NA,P,7,1,80,2314,0,4,350.5999999642372,114,H
2023-04-11T22:02:25Z,qh2z8vvu,serial-reaction-time,1,P,7,0,80,2314,0,4,654.0999999642372,114,H
2023-04-11T22:02:30Z,qh2z8vvu,html-keyboard-response,NA,NA,NA,NA,NA,NA,NA,NA,NA,NA,NA
2023-04-11T22:02:30Z,qh2z8vvu,html-keyboard-response,NA,NA,NA,NA,NA,NA,NA,NA,NA,NA,NA
2023-04-11T22:02:31Z,qh2z8vvu,serial-reaction-time,1,R,8,1,1,2314,0,4,469,4,X
2023-04-11T22:02:32Z,qh2z8vvu,serial-reaction-time,1,P,8,1,2,2314,0,2,539.5999999642372,42,X
2023-04-11T22:02:33Z,qh2z8vvu,serial-reaction-time,1,R,8,1,3,2314,0,1,398.699999988079,421,L
2023-04-11T22:02:33Z,qh2z8vvu,serial-reaction-time,1,P,8,1,4,2314,0,3,399.800000011921,213,H
2023-04-11T22:02:34Z,qh2z8vvu,serial-reaction-time,1,R,8,1,5,2314,0,1,389.699999988079,131,T
2023-04-11T22:02:34Z,qh2z8vvu,serial-reaction-time,1,P,8,1,6,2314,0,1,412.800000011921,311,H
2023-04-11T22:02:35Z,qh2z8vvu,serial-reaction-time,1,R,8,1,7,2314,0,4,506.5,114,H
2023-04-11T22:02:35Z,qh2z8vvu,serial-reaction-time,1,P,8,1,8,2314,0,4,466.39999997615814,144,H
2023-04-11T22:02:36Z,qh2z8vvu,serial-reaction-time,1,R,8,1,9,2314,0,3,581.1000000238419,443,L
2023-04-11T22:02:37Z,qh2z8vvu,serial-reaction-time,1,P,8,1,10,2314,0,2,351.60000002384186,432,H
2023-04-11T22:02:37Z,qh2z8vvu,serial-reaction-time,1,R,8,1,11,2314,0,3,456.300000011921,323,T
2023-04-11T22:02:38Z,qh2z8vvu,serial-reaction-time,1,P,8,1,12,2314,0,3,405.800000011921,233,H
2023-04-11T22:02:38Z,qh2z8vvu,serial-reaction-time,1,R,8,1,13,2314,0,3,400.800000011921,333,R
2023-04-11T22:02:39Z,qh2z8vvu,serial-reaction-time,1,P,8,1,14,2314,0,1,471.300000011921,331,H
2023-04-11T22:02:39Z,qh2z8vvu,serial-reaction-time,1,R,8,1,15,2314,0,1,380,311,H
2023-04-11T22:02:40Z,qh2z8vvu,serial-reaction-time,1,P,8,1,16,2314,0,4,439.5,114,H
2023-04-11T22:02:41Z,qh2z8vvu,serial-reaction-time,1,R,8,1,17,2314,0,4,479.9000000357628,144,H
2023-04-11T22:02:41Z,qh2z8vvu,serial-reaction-time,1,P,8,1,18,2314,0,2,467.800000011921,442,H
2023-04-11T22:02:42Z,qh2z8vvu,serial-reaction-time,1,R,8,1,19,2314,0,2,376.199999988079,422,H
2023-04-11T22:02:42Z,qh2z8vvu,serial-reaction-time,1,P,8,1,20,2314,0,3,474.7000000476837,223,H
2023-04-11T22:02:43Z,qh2z8vvu,serial-reaction-time,1,R,8,1,21,2314,0,1,526.3000000119209,231,L
2023-04-11T22:02:43Z,qh2z8vvu,serial-reaction-time,1,P,8,1,22,2314,0,1,358.89999997615814,311,H
2023-04-11T22:02:44Z,qh2z8vvu,serial-reaction-time,1,R,8,1,23,2314,0,4,370.300000011921,114,H
2023-04-11T22:02:44Z,qh2z8vvu,serial-reaction-time,1,P,8,1,24,2314,0,4,312.39999997615814,144,H
2023-04-11T22:02:45Z,qh2z8vvu,serial-reaction-time,1,R,8,1,25,2314,0,4,427.0999999642372,444,R
2023-04-11T22:02:45Z,qh2z8vvu,serial-reaction-time,1,P,8,1,26,2314,0,2,358.5,442,H
2023-04-11T22:02:46Z,qh2z8vvu,serial-reaction-time,1,R,8,1,27,2314,0,4,420.199999988079,424,T
2023-04-11T22:02:47Z,qh2z8vvu,serial-reaction-time,1,P,8,1,28,2314,0,3,551.3999999761581,243,H
2023-04-11T22:02:47Z,qh2z8vvu,serial-reaction-time,1,R,8,1,29,2314,0,2,484,432,H
2023-04-11T22:02:48Z,qh2z8vvu,serial-reaction-time,1,P,8,1,30,2314,0,1,371.2000000476837,321,H
2023-04-11T22:02:48Z,qh2z8vvu,serial-reaction-time,NA,R,8,1,31,2314,0,2,429.9000000357628,212,T
2023-04-11T22:02:49Z,qh2z8vvu,serial-reaction-time,1,R,8,0,31,2314,0,2,716.3000000715256,212,T
2023-04-11T22:02:49Z,qh2z8vvu,serial-reaction-time,1,P,8,1,32,2314,0,4,558.6999999880791,124,H
2023-04-11T22:02:50Z,qh2z8vvu,serial-reaction-time,NA,R,8,1,33,2314,0,3,405.5999999642372,243,H
2023-04-11T22:02:50Z,qh2z8vvu,serial-reaction-time,1,R,8,0,33,2314,0,3,704.9999999403954,243,H
2023-04-11T22:02:51Z,qh2z8vvu,serial-reaction-time,1,P,8,1,34,2314,0,2,475.60000002384186,432,H
2023-04-11T22:02:51Z,qh2z8vvu,serial-reaction-time,1,R,8,1,35,2314,0,4,433.5,324,L
2023-04-11T22:02:52Z,qh2z8vvu,serial-reaction-time,1,P,8,1,36,2314,0,3,528.8999999761581,243,H
2023-04-11T22:02:53Z,qh2z8vvu,serial-reaction-time,1,R,8,1,37,2314,0,4,352.10000002384186,434,T
2023-04-11T22:02:53Z,qh2z8vvu,serial-reaction-time,1,P,8,1,38,2314,0,1,433.7000000476837,341,H
2023-04-11T22:02:54Z,qh2z8vvu,serial-reaction-time,1,R,8,1,39,2314,0,3,408.199999988079,413,L
2023-04-11T22:02:54Z,qh2z8vvu,serial-reaction-time,1,P,8,1,40,2314,0,4,424.199999988079,134,H
2023-04-11T22:02:55Z,qh2z8vvu,serial-reaction-time,1,R,8,1,41,2314,0,4,501.5999999642372,344,L
2023-04-11T22:02:55Z,qh2z8vvu,serial-reaction-time,1,P,8,1,42,2314,0,2,523.6000000238419,442,H
2023-04-11T22:02:56Z,qh2z8vvu,serial-reaction-time,1,R,8,1,43,2314,0,1,399.2000000476837,421,L
2023-04-11T22:02:56Z,qh2z8vvu,serial-reaction-time,1,P,8,1,44,2314,0,3,355.5,213,H
2023-04-11T22:02:57Z,qh2z8vvu,serial-reaction-time,1,R,8,1,45,2314,0,1,355.5,131,T
2023-04-11T22:02:58Z,qh2z8vvu,serial-reaction-time,1,P,8,1,46,2314,0,1,392.9000000357628,311,H
2023-04-11T22:02:58Z,qh2z8vvu,serial-reaction-time,1,R,8,1,47,2314,0,3,440.4000000357628,113,L
2023-04-11T22:02:59Z,qh2z8vvu,serial-reaction-time,1,P,8,1,48,2314,0,4,483.9000000357628,134,H
2023-04-11T22:02:59Z,qh2z8vvu,serial-reaction-time,1,R,8,1,49,2314,0,4,400.60000002384186,344,L
2023-04-11T22:03:00Z,qh2z8vvu,serial-reaction-time,1,P,8,1,50,2314,0,2,427.5,442,H
2023-04-11T22:03:01Z,qh2z8vvu,serial-reaction-time,1,R,8,1,51,2314,0,3,628.1000000238419,423,L
2023-04-11T22:03:01Z,qh2z8vvu,serial-reaction-time,1,P,8,1,52,2314,0,3,511.89999997615814,233,H
2023-04-11T22:03:02Z,qh2z8vvu,serial-reaction-time,1,R,8,1,53,2314,0,4,506.10000002384186,334,L
2023-04-11T22:03:02Z,qh2z8vvu,serial-reaction-time,1,P,8,1,54,2314,0,1,393.5,341,H
2023-04-11T22:03:03Z,qh2z8vvu,serial-reaction-time,1,R,8,1,55,2314,0,2,504.39999997615814,412,H
2023-04-11T22:03:04Z,qh2z8vvu,serial-reaction-time,1,P,8,1,56,2314,0,4,490.10000002384186,124,H
2023-04-11T22:03:04Z,qh2z8vvu,serial-reaction-time,1,R,8,1,57,2314,0,2,565.1000000238419,242,T
2023-04-11T22:03:05Z,qh2z8vvu,serial-reaction-time,1,P,8,1,58,2314,0,2,375.5999999642372,422,H
2023-04-11T22:03:05Z,qh2z8vvu,serial-reaction-time,1,R,8,1,59,2314,0,1,441.800000011921,221,L
2023-04-11T22:03:06Z,qh2z8vvu,serial-reaction-time,1,P,8,1,60,2314,0,3,429.60000002384186,213,H
2023-04-11T22:03:07Z,qh2z8vvu,serial-reaction-time,1,R,8,1,61,2314,0,4,426.5,134,H
2023-04-11T22:03:07Z,qh2z8vvu,serial-reaction-time,NA,P,8,1,62,2314,0,1,365.300000011921,341,H
2023-04-11T22:03:07Z,qh2z8vvu,serial-reaction-time,1,P,8,0,62,2314,0,1,632.6000000238419,341,H
2023-04-11T22:03:08Z,qh2z8vvu,serial-reaction-time,NA,R,8,1,63,2314,0,4,721.6000000238419,414,T
2023-04-11T22:03:08Z,qh2z8vvu,serial-reaction-time,1,R,8,0,63,2314,0,4,907.3000000715256,414,T
2023-04-11T22:03:09Z,qh2z8vvu,serial-reaction-time,1,P,8,1,64,2314,0,4,353.0999999642372,144,H
2023-04-11T22:03:09Z,qh2z8vvu,serial-reaction-time,1,R,8,1,65,2314,0,1,413.5,441,L
2023-04-11T22:03:10Z,qh2z8vvu,serial-reaction-time,1,P,8,1,66,2314,0,2,534.8999999761581,412,H
2023-04-11T22:03:11Z,qh2z8vvu,serial-reaction-time,1,R,8,1,67,2314,0,3,463,123,L
2023-04-11T22:03:11Z,qh2z8vvu,serial-reaction-time,1,P,8,1,68,2314,0,3,496.60000002384186,233,H
2023-04-11T22:03:12Z,qh2z8vvu,serial-reaction-time,1,R,8,1,69,2314,0,1,400.5,331,H
2023-04-11T22:03:12Z,qh2z8vvu,serial-reaction-time,1,P,8,1,70,2314,0,1,302.10000002384186,311,H
2023-04-11T22:03:13Z,qh2z8vvu,serial-reaction-time,1,R,8,1,71,2314,0,2,507.39999997615814,112,L
2023-04-11T22:03:13Z,qh2z8vvu,serial-reaction-time,1,P,8,1,72,2314,0,4,459.2000000476837,124,H
2023-04-11T22:03:14Z,qh2z8vvu,serial-reaction-time,1,R,8,1,73,2314,0,4,343.89999997615814,244,L
2023-04-11T22:03:14Z,qh2z8vvu,serial-reaction-time,1,P,8,1,74,2314,0,2,397.39999997615814,442,H
2023-04-11T22:03:15Z,qh2z8vvu,serial-reaction-time,1,R,8,1,75,2314,0,3,435.199999988079,423,L
2023-04-11T22:03:16Z,qh2z8vvu,serial-reaction-time,1,P,8,1,76,2314,0,3,464.60000002384186,233,H
2023-04-11T22:03:16Z,qh2z8vvu,serial-reaction-time,1,R,8,1,77,2314,0,4,457,334,L
2023-04-11T22:03:17Z,qh2z8vvu,serial-reaction-time,1,P,8,1,78,2314,0,1,362.699999988079,341,H
2023-04-11T22:03:17Z,qh2z8vvu,serial-reaction-time,1,R,8,1,79,2314,0,4,501.10000002384186,414,T
2023-04-11T22:03:18Z,qh2z8vvu,serial-reaction-time,1,P,8,1,80,2314,0,4,488.60000002384186,144,H
2023-04-11T22:03:23Z,qh2z8vvu,html-keyboard-response,NA,NA,NA,NA,NA,NA,NA,NA,NA,NA,NA
2023-04-11T22:03:24Z,qh2z8vvu,html-keyboard-response,NA,NA,NA,NA,NA,NA,NA,NA,NA,NA,NA
2023-04-11T22:03:25Z,qh2z8vvu,serial-reaction-time,1,R,9,1,1,2314,0,1,491.800000011921,1,X
2023-04-11T22:03:26Z,qh2z8vvu,serial-reaction-time,1,P,9,1,2,2314,0,2,405.5,12,X
2023-04-11T22:03:26Z,qh2z8vvu,serial-reaction-time,1,R,9,1,3,2314,0,2,404.0999999642372,122,L
2023-04-11T22:03:27Z,qh2z8vvu,serial-reaction-time,1,P,9,1,4,2314,0,3,369.300000011921,223,H
2023-04-11T22:03:28Z,qh2z8vvu,serial-reaction-time,1,R,9,1,5,2314,0,1,372.4000000357628,231,L
2023-04-11T22:03:28Z,qh2z8vvu,serial-reaction-time,1,P,9,1,6,2314,0,1,376.800000011921,311,H
2023-04-11T22:03:29Z,qh2z8vvu,serial-reaction-time,NA,R,9,1,7,2314,0,4,424.0999999642372,114,H
2023-04-11T22:03:29Z,qh2z8vvu,serial-reaction-time,1,R,9,0,7,2314,0,4,625.5999999642372,114,H
2023-04-11T22:03:29Z,qh2z8vvu,serial-reaction-time,1,P,9,1,8,2314,0,4,389.5999999642372,144,H
2023-04-11T22:03:30Z,qh2z8vvu,serial-reaction-time,1,R,9,1,9,2314,0,1,354.19999998807907,441,L
2023-04-11T22:03:30Z,qh2z8vvu,serial-reaction-time,1,P,9,1,10,2314,0,2,443.39999997615814,412,H
2023-04-11T22:03:31Z,qh2z8vvu,serial-reaction-time,1,R,9,1,11,2314,0,4,449.300000011921,124,H
2023-04-11T22:03:32Z,qh2z8vvu,serial-reaction-time,1,P,9,1,12,2314,0,3,515.9000000357628,243,H
2023-04-11T22:03:32Z,qh2z8vvu,serial-reaction-time,1,R,9,1,13,2314,0,4,397.300000011921,434,T
2023-04-11T22:03:33Z,qh2z8vvu,serial-reaction-time,1,P,9,1,14,2314,0,1,404,341,H
2023-04-11T22:03:33Z,qh2z8vvu,serial-reaction-time,1,R,9,1,15,2314,0,3,396.699999988079,413,L
2023-04-11T22:03:34Z,qh2z8vvu,serial-reaction-time,1,P,9,1,16,2314,0,4,332.89999997615814,134,H
2023-04-11T22:03:34Z,qh2z8vvu,serial-reaction-time,1,R,9,1,17,2314,0,2,378.5,342,L
2023-04-11T22:03:35Z,qh2z8vvu,serial-reaction-time,1,P,9,1,18,2314,0,2,415.300000011921,422,H
2023-04-11T22:03:35Z,qh2z8vvu,serial-reaction-time,1,R,9,1,19,2314,0,1,402.60000002384186,221,L
2023-04-11T22:03:36Z,qh2z8vvu,serial-reaction-time,1,P,9,1,20,2314,0,3,374.9000000357628,213,H
2023-04-11T22:03:36Z,qh2z8vvu,serial-reaction-time,1,R,9,1,21,2314,0,4,357.69999998807907,134,H
2023-04-11T22:03:37Z,qh2z8vvu,serial-reaction-time,1,P,9,1,22,2314,0,1,582.3000000119209,341,H
2023-04-11T22:03:38Z,qh2z8vvu,serial-reaction-time,1,R,9,1,23,2314,0,3,401.5,413,L
2023-04-11T22:03:38Z,qh2z8vvu,serial-reaction-time,1,P,9,1,24,2314,0,4,349.60000002384186,134,H
2023-04-11T22:03:39Z,qh2z8vvu,serial-reaction-time,1,R,9,1,25,2314,0,1,382.39999997615814,341,H
2023-04-11T22:03:39Z,qh2z8vvu,serial-reaction-time,1,P,9,1,26,2314,0,2,320.2999999523163,412,H
2023-04-11T22:03:40Z,qh2z8vvu,serial-reaction-time,1,R,9,1,27,2314,0,3,595.7000000476837,123,L
2023-04-11T22:03:40Z,qh2z8vvu,serial-reaction-time,1,P,9,1,28,2314,0,3,477.4000000357628,233,H
2023-04-11T22:03:41Z,qh2z8vvu,serial-reaction-time,1,R,9,1,29,2314,0,1,342.10000002384186,331,H
2023-04-11T22:03:41Z,qh2z8vvu,serial-reaction-time,1,P,9,1,30,2314,0,1,317.19999998807907,311,H
2023-04-11T22:03:42Z,qh2z8vvu,serial-reaction-time,1,R,9,1,31,2314,0,4,475.699999988079,114,H
2023-04-11T22:03:42Z,qh2z8vvu,serial-reaction-time,1,P,9,1,32,2314,0,4,418.89999997615814,144,H
2023-04-11T22:03:43Z,qh2z8vvu,serial-reaction-time,1,R,9,1,33,2314,0,3,558.6999999880791,443,L
2023-04-11T22:03:44Z,qh2z8vvu,serial-reaction-time,1,P,9,1,34,2314,0,2,383.10000002384186,432,H
2023-04-11T22:03:44Z,qh2z8vvu,serial-reaction-time,1,R,9,1,35,2314,0,3,462.5,323,T
2023-04-11T22:03:45Z,qh2z8vvu,serial-reaction-time,1,P,9,1,36,2314,0,3,400.5,233,H
2023-04-11T22:03:45Z,qh2z8vvu,serial-reaction-time,1,R,9,1,37,2314,0,2,353.39999997615814,332,L
2023-04-11T22:03:46Z,qh2z8vvu,serial-reaction-time,1,P,9,1,38,2314,0,1,432.199999988079,321,H
2023-04-11T22:03:46Z,qh2z8vvu,serial-reaction-time,1,R,9,1,39,2314,0,4,312,214,L
2023-04-11T22:03:47Z,qh2z8vvu,serial-reaction-time,1,P,9,1,40,2314,0,4,387.10000002384186,144,H
2023-04-11T22:03:47Z,qh2z8vvu,serial-reaction-time,1,R,9,1,41,2314,0,4,341.9000000357628,444,R
2023-04-11T22:03:48Z,qh2z8vvu,serial-reaction-time,1,P,9,1,42,2314,0,2,366.60000002384186,442,H
2023-04-11T22:03:48Z,qh2z8vvu,serial-reaction-time,1,R,9,1,43,2314,0,4,571.8000000119209,424,T
2023-04-11T22:03:49Z,qh2z8vvu,serial-reaction-time,1,P,9,1,44,2314,0,3,484.10000002384186,243,H
2023-04-11T22:03:50Z,qh2z8vvu,serial-reaction-time,1,R,9,1,45,2314,0,1,408.5,431,L
2023-04-11T22:03:50Z,qh2z8vvu,serial-reaction-time,1,P,9,1,46,2314,0,1,351.19999998807907,311,H
2023-04-11T22:03:51Z,qh2z8vvu,serial-reaction-time,1,R,9,1,47,2314,0,2,434.5,112,L
2023-04-11T22:03:51Z,qh2z8vvu,serial-reaction-time,1,P,9,1,48,2314,0,4,408.7000000476837,124,H
2023-04-11T22:03:52Z,qh2z8vvu,serial-reaction-time,1,R,9,1,49,2314,0,4,404.10000002384186,244,L
2023-04-11T22:03:52Z,qh2z8vvu,serial-reaction-time,1,P,9,1,50,2314,0,2,381.300000011921,442,H
2023-04-11T22:03:53Z,qh2z8vvu,serial-reaction-time,1,R,9,1,51,2314,0,3,574.6999999880791,423,L
2023-04-11T22:03:53Z,qh2z8vvu,serial-reaction-time,1,P,9,1,52,2314,0,3,352.5,233,H
2023-04-11T22:03:54Z,qh2z8vvu,serial-reaction-time,NA,R,9,1,53,2314,0,2,350.4000000357628,332,L
2023-04-11T22:03:54Z,qh2z8vvu,serial-reaction-time,1,R,9,0,53,2314,0,2,653.1999999880791,332,L
2023-04-11T22:03:55Z,qh2z8vvu,serial-reaction-time,1,P,9,1,54,2314,0,1,422.5,321,H
2023-04-11T22:03:55Z,qh2z8vvu,serial-reaction-time,1,R,9,1,55,2314,0,4,387.699999988079,214,L
2023-04-11T22:03:56Z,qh2z8vvu,serial-reaction-time,1,P,9,1,56,2314,0,4,388,144,H
2023-04-11T22:03:56Z,qh2z8vvu,serial-reaction-time,1,R,9,1,57,2314,0,1,473.300000011921,441,L
2023-04-11T22:03:57Z,qh2z8vvu,serial-reaction-time,1,P,9,1,58,2314,0,2,424,412,H
2023-04-11T22:03:57Z,qh2z8vvu,serial-reaction-time,1,R,9,1,59,2314,0,3,382.800000011921,123,L
2023-04-11T22:03:58Z,qh2z8vvu,serial-reaction-time,1,P,9,1,60,2314,0,3,358.30000001192093,233,H
2023-04-11T22:03:59Z,qh2z8vvu,serial-reaction-time,NA,R,9,1,61,2314,0,2,400,332,L
2023-04-11T22:03:59Z,qh2z8vvu,serial-reaction-time,1,R,9,0,61,2314,0,2,696.8000000119209,332,L
2023-04-11T22:03:59Z,qh2z8vvu,serial-reaction-time,1,P,9,1,62,2314,0,1,460.9000000357628,321,H
2023-04-11T22:04:00Z,qh2z8vvu,serial-reaction-time,1,R,9,1,63,2314,0,4,423.699999988079,214,L
2023-04-11T22:04:01Z,qh2z8vvu,serial-reaction-time,1,P,9,1,64,2314,0,4,433.0999999642372,144,H
2023-04-11T22:04:01Z,qh2z8vvu,serial-reaction-time,1,R,9,1,65,2314,0,4,342.30000001192093,444,R
2023-04-11T22:04:02Z,qh2z8vvu,serial-reaction-time,1,P,9,1,66,2314,0,2,430.5,442,H
2023-04-11T22:04:02Z,qh2z8vvu,serial-reaction-time,1,R,9,1,67,2314,0,1,400.199999988079,421,L
2023-04-11T22:04:03Z,qh2z8vvu,serial-reaction-time,1,P,9,1,68,2314,0,3,400.7000000476837,213,H
2023-04-11T22:04:03Z,qh2z8vvu,serial-reaction-time,1,R,9,1,69,2314,0,4,459.10000002384186,134,H
2023-04-11T22:04:04Z,qh2z8vvu,serial-reaction-time,1,P,9,1,70,2314,0,1,496.10000002384186,341,H
2023-04-11T22:04:04Z,qh2z8vvu,serial-reaction-time,1,R,9,1,71,2314,0,2,469.39999997615814,412,H
2023-04-11T22:04:05Z,qh2z8vvu,serial-reaction-time,1,P,9,1,72,2314,0,4,559,124,H
2023-04-11T22:04:06Z,qh2z8vvu,serial-reaction-time,1,R,9,1,73,2314,0,3,611.8999999761581,243,H
2023-04-11T22:04:06Z,qh2z8vvu,serial-reaction-time,1,P,9,1,74,2314,0,2,399.199999988079,432,H
2023-04-11T22:04:07Z,qh2z8vvu,serial-reaction-time,1,R,9,1,75,2314,0,2,367.300000011921,322,L
2023-04-11T22:04:08Z,qh2z8vvu,serial-reaction-time,1,P,9,1,76,2314,0,3,627,223,H
2023-04-11T22:04:08Z,qh2z8vvu,serial-reaction-time,1,R,9,1,77,2314,0,4,546.9000000357628,234,L
2023-04-11T22:04:09Z,qh2z8vvu,serial-reaction-time,1,P,9,1,78,2314,0,1,397.5999999642372,341,H
2023-04-11T22:04:10Z,qh2z8vvu,serial-reaction-time,1,R,9,1,79,2314,0,4,582.8000000119209,414,T
2023-04-11T22:04:10Z,qh2z8vvu,serial-reaction-time,1,P,9,1,80,2314,0,4,390.2000000476837,144,H
2023-04-11T22:04:15Z,qh2z8vvu,html-keyboard-response,NA,NA,NA,NA,NA,NA,NA,NA,NA,NA,NA
2023-04-11T22:04:16Z,qh2z8vvu,html-keyboard-response,NA,NA,NA,NA,NA,NA,NA,NA,NA,NA,NA
2023-04-11T22:04:18Z,qh2z8vvu,serial-reaction-time,1,R,10,1,1,2314,0,1,365.0999999642372,1,X
2023-04-11T22:04:18Z,qh2z8vvu,serial-reaction-time,1,P,10,1,2,2314,0,2,485.10000002384186,12,X
2023-04-11T22:04:19Z,qh2z8vvu,serial-reaction-time,1,R,10,1,3,2314,0,3,376.5,123,L
2023-04-11T22:04:19Z,qh2z8vvu,serial-reaction-time,1,P,10,1,4,2314,0,3,411.5,233,H
2023-04-11T22:04:20Z,qh2z8vvu,serial-reaction-time,1,R,10,1,5,2314,0,2,394.300000011921,332,L
2023-04-11T22:04:20Z,qh2z8vvu,serial-reaction-time,1,P,10,1,6,2314,0,1,421.800000011921,321,H
2023-04-11T22:04:21Z,qh2z8vvu,serial-reaction-time,1,R,10,1,7,2314,0,2,438.300000011921,212,T
2023-04-11T22:04:22Z,qh2z8vvu,serial-reaction-time,1,P,10,1,8,2314,0,4,555.5,124,H
2023-04-11T22:04:22Z,qh2z8vvu,serial-reaction-time,1,R,10,1,9,2314,0,4,345.5,244,L
2023-04-11T22:04:23Z,qh2z8vvu,serial-reaction-time,1,P,10,1,10,2314,0,2,395,442,H
2023-04-11T22:04:23Z,qh2z8vvu,serial-reaction-time,1,R,10,1,11,2314,0,4,370.10000002384186,424,T
2023-04-11T22:04:24Z,qh2z8vvu,serial-reaction-time,NA,P,10,1,12,2314,0,3,332.80000001192093,243,H
2023-04-11T22:04:24Z,qh2z8vvu,serial-reaction-time,1,P,10,0,12,2314,0,3,692,243,H
2023-04-11T22:04:24Z,qh2z8vvu,serial-reaction-time,1,R,10,1,13,2314,0,3,401.60000002384186,433,L
2023-04-11T22:04:25Z,qh2z8vvu,serial-reaction-time,1,P,10,1,14,2314,0,1,428.10000002384186,331,H
2023-04-11T22:04:26Z,qh2z8vvu,serial-reaction-time,NA,R,10,1,15,2314,0,2,601.1999999880791,312,L
2023-04-11T22:04:26Z,qh2z8vvu,serial-reaction-time,1,R,10,0,15,2314,0,2,783,312,L
2023-04-11T22:04:27Z,qh2z8vvu,serial-reaction-time,1,P,10,1,16,2314,0,4,558.8000000119209,124,H
2023-04-11T22:04:27Z,qh2z8vvu,serial-reaction-time,1,R,10,1,17,2314,0,4,369.39999997615814,244,L
2023-04-11T22:04:28Z,qh2z8vvu,serial-reaction-time,1,P,10,1,18,2314,0,2,374.699999988079,442,H
2023-04-11T22:04:28Z,qh2z8vvu,serial-reaction-time,1,R,10,1,19,2314,0,3,693.3000000119209,423,L
2023-04-11T22:04:29Z,qh2z8vvu,serial-reaction-time,1,P,10,1,20,2314,0,3,451.4000000357628,233,H
2023-04-11T22:04:30Z,qh2z8vvu,serial-reaction-time,1,R,10,1,21,2314,0,2,381.800000011921,332,L
2023-04-11T22:04:30Z,qh2z8vvu,serial-reaction-time,1,P,10,1,22,2314,0,1,450.89999997615814,321,H
2023-04-11T22:04:31Z,qh2z8vvu,serial-reaction-time,NA,R,10,1,23,2314,0,2,413.7000000476837,212,T
2023-04-11T22:04:31Z,qh2z8vvu,serial-reaction-time,1,R,10,0,23,2314,0,2,628.8000000715256,212,T
2023-04-11T22:04:32Z,qh2z8vvu,serial-reaction-time,1,P,10,1,24,2314,0,4,494.800000011921,124,H
2023-04-11T22:04:32Z,qh2z8vvu,serial-reaction-time,1,R,10,1,25,2314,0,3,512,243,H
2023-04-11T22:04:33Z,qh2z8vvu,serial-reaction-time,1,P,10,1,26,2314,0,2,300,432,H
2023-04-11T22:04:33Z,qh2z8vvu,serial-reaction-time,1,R,10,1,27,2314,0,4,454.800000011921,324,L
2023-04-11T22:04:34Z,qh2z8vvu,serial-reaction-time,1,P,10,1,28,2314,0,3,426,243,H
2023-04-11T22:04:34Z,qh2z8vvu,serial-reaction-time,1,R,10,1,29,2314,0,1,375.10000002384186,431,L
2023-04-11T22:04:35Z,qh2z8vvu,serial-reaction-time,1,P,10,1,30,2314,0,1,397.300000011921,311,H
2023-04-11T22:04:35Z,qh2z8vvu,serial-reaction-time,1,R,10,1,31,2314,0,4,509.7999999523163,114,H
2023-04-11T22:04:36Z,qh2z8vvu,serial-reaction-time,1,P,10,1,32,2314,0,4,436.5,144,H
2023-04-11T22:04:37Z,qh2z8vvu,serial-reaction-time,1,R,10,1,33,2314,0,3,511,443,L
2023-04-11T22:04:37Z,qh2z8vvu,serial-reaction-time,NA,P,10,1,34,2314,0,2,717.3000000119209,432,H
2023-04-11T22:04:38Z,qh2z8vvu,serial-reaction-time,1,P,10,0,34,2314,0,2,866.8000000119209,432,H
2023-04-11T22:04:38Z,qh2z8vvu,serial-reaction-time,1,R,10,1,35,2314,0,2,397.10000002384186,322,L
2023-04-11T22:04:39Z,qh2z8vvu,serial-reaction-time,1,P,10,1,36,2314,0,3,458.0999999642372,223,H
2023-04-11T22:04:39Z,qh2z8vvu,serial-reaction-time,1,R,10,1,37,2314,0,3,310.10000002384186,233,H
2023-04-11T22:04:40Z,qh2z8vvu,serial-reaction-time,1,P,10,1,38,2314,0,1,297.10000002384186,331,H
2023-04-11T22:04:40Z,qh2z8vvu,serial-reaction-time,1,R,10,1,39,2314,0,2,448,312,L
2023-04-11T22:04:41Z,qh2z8vvu,serial-reaction-time,1,P,10,1,40,2314,0,4,422.5999999642372,124,H
2023-04-11T22:04:41Z,qh2z8vvu,serial-reaction-time,NA,R,10,1,41,2314,0,1,330.60000002384186,241,L
2023-04-11T22:04:41Z,qh2z8vvu,serial-reaction-time,1,R,10,0,41,2314,0,1,526.8000000119209,241,L
2023-04-11T22:04:42Z,qh2z8vvu,serial-reaction-time,1,P,10,1,42,2314,0,2,517.8999999761581,412,H
2023-04-11T22:04:43Z,qh2z8vvu,serial-reaction-time,1,R,10,1,43,2314,0,4,509.199999988079,124,H
2023-04-11T22:04:43Z,qh2z8vvu,serial-reaction-time,1,P,10,1,44,2314,0,3,467.89999997615814,243,H
2023-04-11T22:04:44Z,qh2z8vvu,serial-reaction-time,1,R,10,1,45,2314,0,2,373,432,H
2023-04-11T22:04:44Z,qh2z8vvu,serial-reaction-time,1,P,10,1,46,2314,0,1,423.699999988079,321,H
2023-04-11T22:04:45Z,qh2z8vvu,serial-reaction-time,1,R,10,1,47,2314,0,2,471.5,212,T
2023-04-11T22:04:46Z,qh2z8vvu,serial-reaction-time,1,P,10,1,48,2314,0,4,502.39999997615814,124,H
2023-04-11T22:04:46Z,qh2z8vvu,serial-reaction-time,1,R,10,1,49,2314,0,3,504.10000002384186,243,H
2023-04-11T22:04:47Z,qh2z8vvu,serial-reaction-time,1,P,10,1,50,2314,0,2,344.19999998807907,432,H
2023-04-11T22:04:47Z,qh2z8vvu,serial-reaction-time,1,R,10,1,51,2314,0,3,420.39999997615814,323,T
2023-04-11T22:04:48Z,qh2z8vvu,serial-reaction-time,1,P,10,1,52,2314,0,3,434.39999997615814,233,H
2023-04-11T22:04:49Z,qh2z8vvu,serial-reaction-time,1,R,10,1,53,2314,0,4,536.6999999880791,334,L
2023-04-11T22:04:49Z,qh2z8vvu,serial-reaction-time,NA,P,10,1,54,2314,0,1,367.39999997615814,341,H
2023-04-11T22:04:49Z,qh2z8vvu,serial-reaction-time,1,P,10,0,54,2314,0,1,429.6999999284744,341,H
2023-04-11T22:04:50Z,qh2z8vvu,serial-reaction-time,1,R,10,1,55,2314,0,4,533.5,414,T
2023-04-11T22:04:50Z,qh2z8vvu,serial-reaction-time,1,P,10,1,56,2314,0,4,404.89999997615814,144,H
2023-04-11T22:04:51Z,qh2z8vvu,serial-reaction-time,1,R,10,1,57,2314,0,4,342,444,R
2023-04-11T22:04:51Z,qh2z8vvu,serial-reaction-time,1,P,10,1,58,2314,0,2,513.5,442,H
2023-04-11T22:04:52Z,qh2z8vvu,serial-reaction-time,1,R,10,1,59,2314,0,2,344.60000002384186,422,H
2023-04-11T22:04:52Z,qh2z8vvu,serial-reaction-time,1,P,10,1,60,2314,0,3,416.199999988079,223,H
2023-04-11T22:04:53Z,qh2z8vvu,serial-reaction-time,1,R,10,1,61,2314,0,1,317.10000002384186,231,L
2023-04-11T22:04:53Z,qh2z8vvu,serial-reaction-time,1,P,10,1,62,2314,0,1,333.39999997615814,311,H
2023-04-11T22:04:54Z,qh2z8vvu,serial-reaction-time,1,R,10,1,63,2314,0,3,348.89999997615814,113,L
2023-04-11T22:04:54Z,qh2z8vvu,serial-reaction-time,1,P,10,1,64,2314,0,4,419.7999999523163,134,H
2023-04-11T22:04:55Z,qh2z8vvu,serial-reaction-time,1,R,10,1,65,2314,0,3,460.39999997615814,343,T
2023-04-11T22:04:56Z,qh2z8vvu,serial-reaction-time,1,P,10,1,66,2314,0,2,357,432,H
2023-04-11T22:04:56Z,qh2z8vvu,serial-reaction-time,NA,R,10,1,67,2314,0,3,213.0999999642372,323,T
2023-04-11T22:04:56Z,qh2z8vvu,serial-reaction-time,1,R,10,0,67,2314,0,3,554.1999999880791,323,T
2023-04-11T22:04:57Z,qh2z8vvu,serial-reaction-time,1,P,10,1,68,2314,0,3,303.60000002384186,233,H
2023-04-11T22:04:57Z,qh2z8vvu,serial-reaction-time,NA,R,10,1,69,2314,0,1,316.5999999642372,331,H
2023-04-11T22:04:57Z,qh2z8vvu,serial-reaction-time,1,R,10,0,69,2314,0,1,456.89999997615814,331,H
2023-04-11T22:04:58Z,qh2z8vvu,serial-reaction-time,1,P,10,1,70,2314,0,1,351.7000000476837,311,H
2023-04-11T22:04:58Z,qh2z8vvu,serial-reaction-time,1,R,10,1,71,2314,0,4,439.10000002384186,114,H
2023-04-11T22:04:59Z,qh2z8vvu,serial-reaction-time,NA,P,10,1,72,2314,0,4,457.699999988079,144,H
2023-04-11T22:04:59Z,qh2z8vvu,serial-reaction-time,NA,P,10,0,72,2314,0,4,800.8999999761581,144,H
2023-04-11T22:04:59Z,qh2z8vvu,serial-reaction-time,1,P,10,0,72,2314,0,4,821.6999999284744,144,H
2023-04-11T22:05:00Z,qh2z8vvu,serial-reaction-time,1,R,10,1,73,2314,0,3,460.5999999642372,443,L
2023-04-11T22:05:00Z,qh2z8vvu,serial-reaction-time,1,P,10,1,74,2314,0,2,418.0999999642372,432,H
2023-04-11T22:05:01Z,qh2z8vvu,serial-reaction-time,1,R,10,1,75,2314,0,1,364.4000000357628,321,H
2023-04-11T22:05:01Z,qh2z8vvu,serial-reaction-time,1,P,10,1,76,2314,0,3,340.39999997615814,213,H
2023-04-11T22:05:02Z,qh2z8vvu,serial-reaction-time,NA,R,10,1,77,2314,0,1,308,131,T
2023-04-11T22:05:02Z,qh2z8vvu,serial-reaction-time,1,R,10,0,77,2314,0,1,682.3999999761581,131,T
2023-04-11T22:05:03Z,qh2z8vvu,serial-reaction-time,1,P,10,1,78,2314,0,1,387,311,H
2023-04-11T22:05:03Z,qh2z8vvu,serial-reaction-time,1,R,10,1,79,2314,0,1,310,111,R
2023-04-11T22:05:04Z,qh2z8vvu,serial-reaction-time,1,P,10,1,80,2314,0,4,367.5,114,H
2023-04-11T22:05:09Z,qh2z8vvu,html-keyboard-response,NA,NA,NA,NA,NA,NA,NA,NA,NA,NA,NA
2023-04-11T22:05:10Z,qh2z8vvu,html-keyboard-response,NA,NA,NA,NA,NA,NA,NA,NA,NA,NA,NA
2023-04-11T22:05:12Z,qh2z8vvu,serial-reaction-time,1,R,11,1,1,2314,0,4,504.7000000476837,4,X
2023-04-11T22:05:12Z,qh2z8vvu,serial-reaction-time,1,P,11,1,2,2314,0,2,349.0999999642372,42,X
2023-04-11T22:05:13Z,qh2z8vvu,serial-reaction-time,1,R,11,1,3,2314,0,2,329.0999999642372,422,H
2023-04-11T22:05:13Z,qh2z8vvu,serial-reaction-time,1,P,11,1,4,2314,0,3,429.10000002384186,223,H
2023-04-11T22:05:14Z,qh2z8vvu,serial-reaction-time,1,R,11,1,5,2314,0,3,362.4000000357628,233,H
2023-04-11T22:05:14Z,qh2z8vvu,serial-reaction-time,1,P,11,1,6,2314,0,1,375.60000002384186,331,H
2023-04-11T22:05:15Z,qh2z8vvu,serial-reaction-time,1,R,11,1,7,2314,0,4,492.39999997615814,314,L
2023-04-11T22:05:16Z,qh2z8vvu,serial-reaction-time,1,P,11,1,8,2314,0,4,353,144,H
2023-04-11T22:05:16Z,qh2z8vvu,serial-reaction-time,1,R,11,1,9,2314,0,1,382.199999988079,441,L
2023-04-11T22:05:17Z,qh2z8vvu,serial-reaction-time,1,P,11,1,10,2314,0,2,479.699999988079,412,H
2023-04-11T22:05:17Z,qh2z8vvu,serial-reaction-time,1,R,11,1,11,2314,0,1,389.0999999642372,121,T
2023-04-11T22:05:18Z,qh2z8vvu,serial-reaction-time,1,P,11,1,12,2314,0,3,385.699999988079,213,H
2023-04-11T22:05:18Z,qh2z8vvu,serial-reaction-time,1,R,11,1,13,2314,0,3,340.10000002384186,133,L
2023-04-11T22:05:19Z,qh2z8vvu,serial-reaction-time,1,P,11,1,14,2314,0,1,292.4000000357628,331,H
2023-04-11T22:05:19Z,qh2z8vvu,serial-reaction-time,1,R,11,1,15,2314,0,1,392.800000011921,311,H
2023-04-11T22:05:20Z,qh2z8vvu,serial-reaction-time,NA,P,11,1,16,2314,0,4,325.30000001192093,114,H
2023-04-11T22:05:20Z,qh2z8vvu,serial-reaction-time,1,P,11,0,16,2314,0,4,470.199999988079,114,H
2023-04-11T22:05:20Z,qh2z8vvu,serial-reaction-time,1,R,11,1,17,2314,0,1,282.69999998807907,141,T
2023-04-11T22:05:21Z,qh2z8vvu,serial-reaction-time,1,P,11,1,18,2314,0,2,500.89999997615814,412,H
2023-04-11T22:05:21Z,qh2z8vvu,serial-reaction-time,1,R,11,1,19,2314,0,3,386.89999997615814,123,L
2023-04-11T22:05:22Z,qh2z8vvu,serial-reaction-time,1,P,11,1,20,2314,0,3,361.300000011921,233,H
2023-04-11T22:05:22Z,qh2z8vvu,serial-reaction-time,1,R,11,1,21,2314,0,2,424.5,332,L
2023-04-11T22:05:23Z,qh2z8vvu,serial-reaction-time,NA,P,11,1,22,2314,0,1,322,321,H
2023-04-11T22:05:23Z,qh2z8vvu,serial-reaction-time,1,P,11,0,22,2314,0,1,431.5,321,H
2023-04-11T22:05:24Z,qh2z8vvu,serial-reaction-time,1,R,11,1,23,2314,0,4,539.9000000357628,214,L
2023-04-11T22:05:24Z,qh2z8vvu,serial-reaction-time,1,P,11,1,24,2314,0,4,342.2000000476837,144,H
