datetime,id,trial_type,correct,p_or_r,block,first_response,trial_number,sequence,is_practice,correct_pos,cumulative_rt,actual_triplet,triplet_type
2023-03-16T12:48:11Z,5ckvwhwy,fullscreen,NA,NA,NA,NA,NA,NA,NA,NA,NA,NA,NA
2023-03-16T12:49:37Z,5ckvwhwy,instructions,NA,NA,NA,NA,NA,NA,NA,NA,NA,NA,NA
2023-03-16T12:49:44Z,5ckvwhwy,html-keyboard-response,NA,NA,NA,NA,NA,NA,NA,NA,NA,NA,NA
2023-03-16T12:49:46Z,5ckvwhwy,serial-reaction-time,1,R,1,1,1,3124,1,1,629.9000000059605,1,X
2023-03-16T12:49:46Z,5ckvwhwy,serial-reaction-time,1,R,1,1,2,3124,1,3,621,13,X
2023-03-16T12:49:47Z,5ckvwhwy,serial-reaction-time,1,R,1,1,3,3124,1,4,337,134,X
2023-03-16T12:49:48Z,5ckvwhwy,serial-reaction-time,1,R,1,1,4,3124,1,2,713.4000000059605,342,X
2023-03-16T12:49:48Z,5ckvwhwy,serial-reaction-time,1,R,1,1,5,3124,1,2,464,422,X
2023-03-16T12:49:49Z,5ckvwhwy,serial-reaction-time,1,R,1,1,6,3124,1,2,862.8000000119209,222,X
2023-03-16T12:49:50Z,5ckvwhwy,serial-reaction-time,1,R,1,1,7,3124,1,2,332.2999999821186,222,X
2023-03-16T12:49:50Z,5ckvwhwy,serial-reaction-time,1,R,1,1,8,3124,1,2,325.59999999403954,222,X
2023-03-16T12:49:51Z,5ckvwhwy,serial-reaction-time,1,R,1,1,9,3124,1,4,413.09999999403954,224,X
2023-03-16T12:49:51Z,5ckvwhwy,serial-reaction-time,1,R,1,1,10,3124,1,4,408.7999999821186,244,X
2023-03-16T12:49:52Z,5ckvwhwy,serial-reaction-time,1,R,1,1,11,3124,1,1,601.5,441,X
2023-03-16T12:49:53Z,5ckvwhwy,serial-reaction-time,1,R,1,1,12,3124,1,2,813.8000000119209,412,X
2023-03-16T12:49:54Z,5ckvwhwy,serial-reaction-time,1,R,1,1,13,3124,1,2,392.300000011921,122,X
2023-03-16T12:49:54Z,5ckvwhwy,serial-reaction-time,1,R,1,1,14,3124,1,4,454.90000000596046,224,X
2023-03-16T12:49:55Z,5ckvwhwy,serial-reaction-time,1,R,1,1,15,3124,1,4,440.800000011921,244,X
2023-03-16T12:49:56Z,5ckvwhwy,serial-reaction-time,1,R,1,1,16,3124,1,4,566.2000000178814,444,X
2023-03-16T12:49:56Z,5ckvwhwy,serial-reaction-time,1,R,1,1,17,3124,1,4,272.09999999403954,444,X
2023-03-16T12:49:57Z,5ckvwhwy,serial-reaction-time,1,R,1,1,18,3124,1,4,319.69999998807907,444,X
2023-03-16T12:49:57Z,5ckvwhwy,serial-reaction-time,1,R,1,1,19,3124,1,3,489.300000011921,443,X
2023-03-16T12:49:58Z,5ckvwhwy,serial-reaction-time,1,R,1,1,20,3124,1,3,329.30000001192093,433,X
2023-03-16T12:49:58Z,5ckvwhwy,serial-reaction-time,1,R,1,1,21,3124,1,4,405.800000011921,334,X
2023-03-16T12:49:59Z,5ckvwhwy,serial-reaction-time,1,R,1,1,22,3124,1,3,520.4000000059605,343,X
2023-03-16T12:50:00Z,5ckvwhwy,serial-reaction-time,1,R,1,1,23,3124,1,2,523.3999999761581,432,X
2023-03-16T12:50:00Z,5ckvwhwy,serial-reaction-time,NA,R,1,1,24,3124,1,3,414,323,X
2023-03-16T12:50:01Z,5ckvwhwy,serial-reaction-time,1,R,1,0,24,3124,1,3,772.5999999940395,323,X
2023-03-16T12:50:01Z,5ckvwhwy,serial-reaction-time,1,R,1,1,25,3124,1,4,463.2999999821186,234,X
2023-03-16T12:50:02Z,5ckvwhwy,serial-reaction-time,1,R,1,1,26,3124,1,3,523.4000000059605,343,X
2023-03-16T12:50:02Z,5ckvwhwy,serial-reaction-time,1,R,1,1,27,3124,1,3,395.09999999403954,433,X
2023-03-16T12:50:03Z,5ckvwhwy,serial-reaction-time,1,R,1,1,28,3124,1,2,618.5,332,X
2023-03-16T12:50:04Z,5ckvwhwy,serial-reaction-time,1,R,1,1,29,3124,1,1,391.59999999403954,321,X
2023-03-16T12:50:04Z,5ckvwhwy,serial-reaction-time,1,R,1,1,30,3124,1,4,502.7000000178814,214,X
2023-03-16T12:50:05Z,5ckvwhwy,serial-reaction-time,NA,R,1,1,31,3124,1,2,728.8000000119209,142,X
2023-03-16T12:50:06Z,5ckvwhwy,serial-reaction-time,1,R,1,0,31,3124,1,2,1185.800000011921,142,X
2023-03-16T12:50:07Z,5ckvwhwy,serial-reaction-time,1,R,1,1,32,3124,1,3,786.2000000178814,423,X
2023-03-16T12:50:07Z,5ckvwhwy,serial-reaction-time,1,R,1,1,33,3124,1,4,511.90000000596046,234,X
2023-03-16T12:50:08Z,5ckvwhwy,serial-reaction-time,1,R,1,1,34,3124,1,4,433,344,X
2023-03-16T12:50:09Z,5ckvwhwy,serial-reaction-time,1,R,1,1,35,3124,1,2,1009.0999999940396,442,X
2023-03-16T12:50:10Z,5ckvwhwy,serial-reaction-time,1,R,1,1,36,3124,1,4,541.2999999821186,424,X
2023-03-16T12:50:10Z,5ckvwhwy,serial-reaction-time,1,R,1,1,37,3124,1,4,407.5,244,X
2023-03-16T12:50:11Z,5ckvwhwy,serial-reaction-time,1,R,1,1,38,3124,1,3,610.2999999821186,443,X
2023-03-16T12:50:12Z,5ckvwhwy,serial-reaction-time,1,R,1,1,39,3124,1,1,619.1999999880791,431,X
2023-03-16T12:50:13Z,5ckvwhwy,serial-reaction-time,1,R,1,1,40,3124,1,4,501.90000000596046,314,X
2023-03-16T12:50:13Z,5ckvwhwy,serial-reaction-time,1,R,1,1,41,3124,1,4,443.90000000596046,144,X
2023-03-16T12:50:14Z,5ckvwhwy,serial-reaction-time,1,R,1,1,42,3124,1,2,1004.0999999940396,442,X
2023-03-16T12:50:15Z,5ckvwhwy,serial-reaction-time,1,R,1,1,43,3124,1,1,608.1999999880791,421,X
2023-03-16T12:50:16Z,5ckvwhwy,serial-reaction-time,1,R,1,1,44,3124,1,1,451.59999999403954,211,X
2023-03-16T12:50:16Z,5ckvwhwy,serial-reaction-time,1,R,1,1,45,3124,1,1,352.09999999403954,111,X
2023-03-16T12:50:17Z,5ckvwhwy,serial-reaction-time,1,R,1,1,46,3124,1,1,344.5,111,X
2023-03-16T12:50:17Z,5ckvwhwy,serial-reaction-time,1,R,1,1,47,3124,1,3,563.8999999761581,113,X
2023-03-16T12:50:18Z,5ckvwhwy,serial-reaction-time,1,R,1,1,48,3124,1,4,448.7999999821186,134,X
2023-03-16T12:50:19Z,5ckvwhwy,serial-reaction-time,1,R,1,1,49,3124,1,2,830.2999999821186,342,X
2023-03-16T12:50:20Z,5ckvwhwy,serial-reaction-time,1,R,1,1,50,3124,1,2,426.09999999403954,422,X
2023-03-16T12:50:20Z,5ckvwhwy,serial-reaction-time,1,R,1,1,51,3124,1,4,410.800000011921,224,X
2023-03-16T12:50:21Z,5ckvwhwy,serial-reaction-time,1,R,1,1,52,3124,1,3,463,243,X
2023-03-16T12:50:21Z,5ckvwhwy,serial-reaction-time,1,R,1,1,53,3124,1,4,423.199999988079,434,X
2023-03-16T12:50:22Z,5ckvwhwy,serial-reaction-time,1,R,1,1,54,3124,1,2,801.7000000178814,342,X
2023-03-16T12:50:23Z,5ckvwhwy,serial-reaction-time,1,R,1,1,55,3124,1,1,486.90000000596046,421,X
2023-03-16T12:50:23Z,5ckvwhwy,serial-reaction-time,1,R,1,1,56,3124,1,1,392,211,X
2023-03-16T12:50:24Z,5ckvwhwy,serial-reaction-time,1,R,1,1,57,3124,1,3,586.3000000119209,113,X
2023-03-16T12:50:25Z,5ckvwhwy,serial-reaction-time,1,R,1,1,58,3124,1,3,361.09999999403954,133,X
2023-03-16T12:50:25Z,5ckvwhwy,serial-reaction-time,1,R,1,1,59,3124,1,3,338.59999999403954,333,X
2023-03-16T12:50:26Z,5ckvwhwy,serial-reaction-time,1,R,1,1,60,3124,1,4,333.19999998807907,334,X
2023-03-16T12:50:26Z,5ckvwhwy,serial-reaction-time,1,R,1,1,61,3124,1,3,397,343,X
2023-03-16T12:50:27Z,5ckvwhwy,serial-reaction-time,1,R,1,1,62,3124,1,1,596.2000000178814,431,X
2023-03-16T12:50:28Z,5ckvwhwy,serial-reaction-time,1,R,1,1,63,3124,1,4,499.10000002384186,314,X
2023-03-16T12:50:28Z,5ckvwhwy,serial-reaction-time,1,R,1,1,64,3124,1,4,402.90000000596046,144,X
2023-03-16T12:50:29Z,5ckvwhwy,serial-reaction-time,1,R,1,1,65,3124,1,2,859.8000000119209,442,X
2023-03-16T12:50:30Z,5ckvwhwy,serial-reaction-time,1,R,1,1,66,3124,1,4,403.59999999403954,424,X
2023-03-16T12:50:30Z,5ckvwhwy,serial-reaction-time,1,R,1,1,67,3124,1,2,440.2000000178814,242,X
2023-03-16T12:50:31Z,5ckvwhwy,serial-reaction-time,NA,R,1,1,68,3124,1,3,375.59999999403954,423,X
2023-03-16T12:50:31Z,5ckvwhwy,serial-reaction-time,1,R,1,0,68,3124,1,3,746.2999999821186,423,X
2023-03-16T12:50:32Z,5ckvwhwy,serial-reaction-time,1,R,1,1,69,3124,1,3,398.90000000596046,233,X
2023-03-16T12:50:32Z,5ckvwhwy,serial-reaction-time,1,R,1,1,70,3124,1,4,480.40000000596046,334,X
2023-03-16T12:50:33Z,5ckvwhwy,serial-reaction-time,1,R,1,1,71,3124,1,2,626.9000000059605,342,X
2023-03-16T12:50:34Z,5ckvwhwy,serial-reaction-time,1,R,1,1,72,3124,1,1,503.800000011921,421,X
2023-03-16T12:50:35Z,5ckvwhwy,serial-reaction-time,1,R,1,1,73,3124,1,4,546.3000000119209,214,X
2023-03-16T12:50:35Z,5ckvwhwy,serial-reaction-time,1,R,1,1,74,3124,1,3,420.199999988079,143,X
2023-03-16T12:50:36Z,5ckvwhwy,serial-reaction-time,1,R,1,1,75,3124,1,4,314,434,X
2023-03-16T12:50:36Z,5ckvwhwy,serial-reaction-time,1,R,1,1,76,3124,1,1,666.0999999940395,341,X
2023-03-16T12:50:37Z,5ckvwhwy,serial-reaction-time,1,R,1,1,77,3124,1,3,569.0999999940395,413,X
2023-03-16T12:50:38Z,5ckvwhwy,serial-reaction-time,1,R,1,1,78,3124,1,1,589.2999999821186,131,X
2023-03-16T12:50:39Z,5ckvwhwy,serial-reaction-time,1,R,1,1,79,3124,1,3,486.300000011921,313,X
2023-03-16T12:50:39Z,5ckvwhwy,serial-reaction-time,1,R,1,1,80,3124,1,1,398.5,131,X
2023-03-16T12:50:44Z,5ckvwhwy,html-keyboard-response,NA,NA,NA,NA,NA,NA,NA,NA,NA,NA,NA
2023-03-16T12:50:50Z,5ckvwhwy,html-keyboard-response,NA,NA,NA,NA,NA,NA,NA,NA,NA,NA,NA
2023-03-16T12:50:51Z,5ckvwhwy,serial-reaction-time,1,R,2,1,1,3124,1,1,578.0999999940395,1,X
2023-03-16T12:50:52Z,5ckvwhwy,serial-reaction-time,1,R,2,1,2,3124,1,1,380.60000002384186,11,X
2023-03-16T12:50:53Z,5ckvwhwy,serial-reaction-time,1,R,2,1,3,3124,1,3,525.8000000119209,113,X
2023-03-16T12:50:53Z,5ckvwhwy,serial-reaction-time,1,R,2,1,4,3124,1,3,295.19999998807907,133,X
2023-03-16T12:50:54Z,5ckvwhwy,serial-reaction-time,1,R,2,1,5,3124,1,4,512.8999999761581,334,X
2023-03-16T12:50:54Z,5ckvwhwy,serial-reaction-time,1,R,2,1,6,3124,1,1,537,341,X
2023-03-16T12:50:55Z,5ckvwhwy,serial-reaction-time,1,R,2,1,7,3124,1,3,476.800000011921,413,X
2023-03-16T12:50:56Z,5ckvwhwy,serial-reaction-time,1,R,2,1,8,3124,1,1,460.2000000178814,131,X
2023-03-16T12:50:56Z,5ckvwhwy,serial-reaction-time,1,R,2,1,9,3124,1,3,437.40000000596046,313,X
2023-03-16T12:50:57Z,5ckvwhwy,serial-reaction-time,1,R,2,1,10,3124,1,4,368.7999999821186,134,X
2023-03-16T12:50:57Z,5ckvwhwy,serial-reaction-time,1,R,2,1,11,3124,1,3,335.30000001192093,343,X
2023-03-16T12:50:58Z,5ckvwhwy,serial-reaction-time,1,R,2,1,12,3124,1,3,414,433,X
2023-03-16T12:50:58Z,5ckvwhwy,serial-reaction-time,1,R,2,1,13,3124,1,4,318,334,X
2023-03-16T12:50:59Z,5ckvwhwy,serial-reaction-time,1,R,2,1,14,3124,1,1,506.800000011921,341,X
2023-03-16T12:50:59Z,5ckvwhwy,serial-reaction-time,1,R,2,1,15,3124,1,3,434.40000000596046,413,X
2023-03-16T12:51:00Z,5ckvwhwy,serial-reaction-time,1,R,2,1,16,3124,1,2,591.6000000238419,132,X
2023-03-16T12:51:01Z,5ckvwhwy,serial-reaction-time,1,R,2,1,17,3124,1,2,345.89999997615814,322,X
2023-03-16T12:51:02Z,5ckvwhwy,serial-reaction-time,1,R,2,1,18,3124,1,3,629.5,223,X
2023-03-16T12:51:02Z,5ckvwhwy,serial-reaction-time,1,R,2,1,19,3124,1,3,299.80000001192093,233,X
2023-03-16T12:51:02Z,5ckvwhwy,serial-reaction-time,1,R,2,1,20,3124,1,4,356.59999999403954,334,X
2023-03-16T12:51:03Z,5ckvwhwy,serial-reaction-time,1,R,2,1,21,3124,1,2,630.6999999880791,342,X
2023-03-16T12:51:04Z,5ckvwhwy,serial-reaction-time,1,R,2,1,22,3124,1,3,495.09999999403954,423,X
2023-03-16T12:51:05Z,5ckvwhwy,serial-reaction-time,1,R,2,1,23,3124,1,1,556.9000000059605,231,X
2023-03-16T12:51:05Z,5ckvwhwy,serial-reaction-time,1,R,2,1,24,3124,1,1,321.69999998807907,311,X
2023-03-16T12:51:06Z,5ckvwhwy,serial-reaction-time,1,R,2,1,25,3124,1,2,651.2999999821186,112,X
2023-03-16T12:51:07Z,5ckvwhwy,serial-reaction-time,1,R,2,1,26,3124,1,1,468,121,X
2023-03-16T12:51:07Z,5ckvwhwy,serial-reaction-time,1,R,2,1,27,3124,1,3,470.2999999821186,213,X
2023-03-16T12:51:08Z,5ckvwhwy,serial-reaction-time,1,R,2,1,28,3124,1,3,297,133,X
2023-03-16T12:51:08Z,5ckvwhwy,serial-reaction-time,1,R,2,1,29,3124,1,2,663,332,X
2023-03-16T12:51:09Z,5ckvwhwy,serial-reaction-time,1,R,2,1,30,3124,1,2,354.2999999821186,322,X
2023-03-16T12:51:10Z,5ckvwhwy,serial-reaction-time,1,R,2,1,31,3124,1,1,521.7999999821186,221,X
2023-03-16T12:51:10Z,5ckvwhwy,serial-reaction-time,NA,R,2,1,32,3124,1,2,571.6000000238419,212,X
2023-03-16T12:51:11Z,5ckvwhwy,serial-reaction-time,1,R,2,0,32,3124,1,2,1035.100000023842,212,X
2023-03-16T12:51:11Z,5ckvwhwy,serial-reaction-time,1,R,2,1,33,3124,1,3,525.6000000238419,123,X
2023-03-16T12:51:12Z,5ckvwhwy,serial-reaction-time,1,R,2,1,34,3124,1,1,598.6000000238419,231,X
2023-03-16T12:51:13Z,5ckvwhwy,serial-reaction-time,1,R,2,1,35,3124,1,1,335.19999998807907,311,X
2023-03-16T12:51:13Z,5ckvwhwy,serial-reaction-time,1,R,2,1,36,3124,1,2,588.8000000119209,112,X
2023-03-16T12:51:14Z,5ckvwhwy,serial-reaction-time,1,R,2,1,37,3124,1,1,472.09999999403954,121,X
2023-03-16T12:51:15Z,5ckvwhwy,serial-reaction-time,1,R,2,1,38,3124,1,3,572.6000000238419,213,X
2023-03-16T12:51:15Z,5ckvwhwy,serial-reaction-time,1,R,2,1,39,3124,1,3,338.59999999403954,133,X
2023-03-16T12:51:16Z,5ckvwhwy,serial-reaction-time,1,R,2,1,40,3124,1,3,307.69999998807907,333,X
2023-03-16T12:51:16Z,5ckvwhwy,serial-reaction-time,1,R,2,1,41,3124,1,2,552.5,332,X
2023-03-16T12:51:17Z,5ckvwhwy,serial-reaction-time,1,R,2,1,42,3124,1,4,424,324,X
2023-03-16T12:51:18Z,5ckvwhwy,serial-reaction-time,1,R,2,1,43,3124,1,2,666.4000000059605,242,X
2023-03-16T12:51:18Z,5ckvwhwy,serial-reaction-time,1,R,2,1,44,3124,1,1,434.09999999403954,421,X
2023-03-16T12:51:19Z,5ckvwhwy,serial-reaction-time,1,R,2,1,45,3124,1,4,603.3999999761581,214,X
2023-03-16T12:51:20Z,5ckvwhwy,serial-reaction-time,1,R,2,1,46,3124,1,2,669.9000000059605,142,X
2023-03-16T12:51:21Z,5ckvwhwy,serial-reaction-time,1,R,2,1,47,3124,1,4,429.90000000596046,424,X
2023-03-16T12:51:21Z,5ckvwhwy,serial-reaction-time,1,R,2,1,48,3124,1,1,541.1000000238419,241,X
2023-03-16T12:51:22Z,5ckvwhwy,serial-reaction-time,1,R,2,1,49,3124,1,4,596.9000000059605,414,X
2023-03-16T12:51:23Z,5ckvwhwy,serial-reaction-time,1,R,2,1,50,3124,1,2,680.3999999761581,142,X
2023-03-16T12:51:24Z,5ckvwhwy,serial-reaction-time,1,R,2,1,51,3124,1,4,542.6999999880791,424,X
2023-03-16T12:51:24Z,5ckvwhwy,serial-reaction-time,1,R,2,1,52,3124,1,2,635.2000000178814,242,X
2023-03-16T12:51:25Z,5ckvwhwy,serial-reaction-time,NA,R,2,1,53,3124,1,1,926.4000000059604,421,X
2023-03-16T12:51:26Z,5ckvwhwy,serial-reaction-time,1,R,2,0,53,3124,1,1,1285,421,X
2023-03-16T12:51:26Z,5ckvwhwy,serial-reaction-time,NA,R,2,1,54,3124,1,2,430.09999999403954,212,X
2023-03-16T12:51:27Z,5ckvwhwy,serial-reaction-time,1,R,2,0,54,3124,1,2,740.9000000059605,212,X
2023-03-16T12:51:27Z,5ckvwhwy,serial-reaction-time,1,R,2,1,55,3124,1,2,395.300000011921,122,X
2023-03-16T12:51:28Z,5ckvwhwy,serial-reaction-time,1,R,2,1,56,3124,1,1,576.7000000178814,221,X
2023-03-16T12:51:29Z,5ckvwhwy,serial-reaction-time,1,R,2,1,57,3124,1,4,465.90000000596046,214,X
2023-03-16T12:51:29Z,5ckvwhwy,serial-reaction-time,1,R,2,1,58,3124,1,1,593,141,X
2023-03-16T12:51:30Z,5ckvwhwy,serial-reaction-time,1,R,2,1,59,3124,1,1,381.90000000596046,411,X
2023-03-16T12:51:31Z,5ckvwhwy,serial-reaction-time,1,R,2,1,60,3124,1,4,450.7999999821186,114,X
2023-03-16T12:51:31Z,5ckvwhwy,serial-reaction-time,1,R,2,1,61,3124,1,2,598.7999999821186,142,X
2023-03-16T12:51:32Z,5ckvwhwy,serial-reaction-time,1,R,2,1,62,3124,1,1,461.699999988079,421,X
2023-03-16T12:51:33Z,5ckvwhwy,serial-reaction-time,1,R,2,1,63,3124,1,3,653,213,X
2023-03-16T12:51:33Z,5ckvwhwy,serial-reaction-time,1,R,2,1,64,3124,1,4,352.80000001192093,134,X
2023-03-16T12:51:34Z,5ckvwhwy,serial-reaction-time,1,R,2,1,65,3124,1,4,399.59999999403954,344,X
2023-03-16T12:51:35Z,5ckvwhwy,serial-reaction-time,1,R,2,1,66,3124,1,2,758.8000000119209,442,X
2023-03-16T12:51:35Z,5ckvwhwy,serial-reaction-time,NA,R,2,1,67,3124,1,3,422.59999999403954,423,X
2023-03-16T12:51:36Z,5ckvwhwy,serial-reaction-time,1,R,2,0,67,3124,1,3,963.1999999880792,423,X
2023-03-16T12:51:37Z,5ckvwhwy,serial-reaction-time,1,R,2,1,68,3124,1,2,689.3000000119209,232,X
2023-03-16T12:51:37Z,5ckvwhwy,serial-reaction-time,1,R,2,1,69,3124,1,3,559.6999999880791,323,X
2023-03-16T12:51:38Z,5ckvwhwy,serial-reaction-time,1,R,2,1,70,3124,1,3,360,233,X
2023-03-16T12:51:38Z,5ckvwhwy,serial-reaction-time,1,R,2,1,71,3124,1,4,423.59999999403954,334,X
2023-03-16T12:51:39Z,5ckvwhwy,serial-reaction-time,1,R,2,1,72,3124,1,2,613.7999999821186,342,X
2023-03-16T12:51:40Z,5ckvwhwy,serial-reaction-time,1,R,2,1,73,3124,1,3,477.5,423,X
2023-03-16T12:51:40Z,5ckvwhwy,serial-reaction-time,1,R,2,1,74,3124,1,4,407.199999988079,234,X
2023-03-16T12:51:41Z,5ckvwhwy,serial-reaction-time,1,R,2,1,75,3124,1,3,449.699999988079,343,X
2023-03-16T12:51:42Z,5ckvwhwy,serial-reaction-time,1,R,2,1,76,3124,1,2,553.3999999761581,432,X
2023-03-16T12:51:43Z,5ckvwhwy,serial-reaction-time,1,R,2,1,77,3124,1,3,625.4000000059605,323,X
2023-03-16T12:51:43Z,5ckvwhwy,serial-reaction-time,1,R,2,1,78,3124,1,4,426.40000000596046,234,X
2023-03-16T12:51:44Z,5ckvwhwy,serial-reaction-time,1,R,2,1,79,3124,1,2,549.9000000059605,342,X
2023-03-16T12:51:45Z,5ckvwhwy,serial-reaction-time,1,R,2,1,80,3124,1,1,534.1999999880791,421,X
2023-03-16T12:51:50Z,5ckvwhwy,html-keyboard-response,NA,NA,NA,NA,NA,NA,NA,NA,NA,NA,NA
2023-03-16T12:51:52Z,5ckvwhwy,html-keyboard-response,NA,NA,NA,NA,NA,NA,NA,NA,NA,NA,NA
2023-03-16T12:51:53Z,5ckvwhwy,serial-reaction-time,1,R,1,1,1,3124,0,1,423.699999988079,1,X
2023-03-16T12:51:54Z,5ckvwhwy,serial-reaction-time,1,P,1,1,2,3124,0,3,518.8999999761581,13,X
2023-03-16T12:51:55Z,5ckvwhwy,serial-reaction-time,1,R,1,1,3,3124,0,2,726.4000000059605,132,H
2023-03-16T12:51:55Z,5ckvwhwy,serial-reaction-time,1,P,1,1,4,3124,0,1,502.5,321,H
2023-03-16T12:51:56Z,5ckvwhwy,serial-reaction-time,1,R,1,1,5,3124,0,3,500.09999999403954,213,L
2023-03-16T12:51:57Z,5ckvwhwy,serial-reaction-time,1,P,1,1,6,3124,0,2,518.5,132,H
2023-03-16T12:51:57Z,5ckvwhwy,serial-reaction-time,1,R,1,1,7,3124,0,2,396.5,322,L
2023-03-16T12:51:58Z,5ckvwhwy,serial-reaction-time,1,P,1,1,8,3124,0,4,454,224,H
2023-03-16T12:51:59Z,5ckvwhwy,serial-reaction-time,1,R,1,1,9,3124,0,1,627.2999999821186,241,L
2023-03-16T12:51:59Z,5ckvwhwy,serial-reaction-time,1,P,1,1,10,3124,0,3,549.2000000178814,413,H
2023-03-16T12:52:00Z,5ckvwhwy,serial-reaction-time,1,R,1,1,11,3124,0,1,486.5,131,T
2023-03-16T12:52:00Z,5ckvwhwy,serial-reaction-time,1,P,1,1,12,3124,0,1,329.2000000178814,311,H
2023-03-16T12:52:01Z,5ckvwhwy,serial-reaction-time,1,R,1,1,13,3124,0,2,602.5999999940395,112,H
2023-03-16T12:52:02Z,5ckvwhwy,serial-reaction-time,1,P,1,1,14,3124,0,2,315.59999999403954,122,H
2023-03-16T12:52:02Z,5ckvwhwy,serial-reaction-time,1,R,1,1,15,3124,0,2,321.69999998807907,222,R
2023-03-16T12:52:03Z,5ckvwhwy,serial-reaction-time,1,P,1,1,16,3124,0,4,412.2000000178814,224,H
2023-03-16T12:52:03Z,5ckvwhwy,serial-reaction-time,1,R,1,1,17,3124,0,1,530.6999999880791,241,L
2023-03-16T12:52:04Z,5ckvwhwy,serial-reaction-time,1,P,1,1,18,3124,0,3,439.199999988079,413,H
2023-03-16T12:52:04Z,5ckvwhwy,serial-reaction-time,1,R,1,1,19,3124,0,3,339.90000000596046,133,L
2023-03-16T12:52:05Z,5ckvwhwy,serial-reaction-time,1,P,1,1,20,3124,0,1,456.59999999403954,331,H
2023-03-16T12:52:06Z,5ckvwhwy,serial-reaction-time,NA,R,1,1,21,3124,0,4,369.90000000596046,314,L
2023-03-16T12:52:06Z,5ckvwhwy,serial-reaction-time,1,R,1,0,21,3124,0,4,685.7000000178814,314,L
2023-03-16T12:52:07Z,5ckvwhwy,serial-reaction-time,1,P,1,1,22,3124,0,2,595.3000000119209,142,H
2023-03-16T12:52:07Z,5ckvwhwy,serial-reaction-time,1,R,1,1,23,3124,0,3,515.0999999940395,423,H
2023-03-16T12:52:08Z,5ckvwhwy,serial-reaction-time,1,P,1,1,24,3124,0,4,371.09999999403954,234,H
2023-03-16T12:52:09Z,5ckvwhwy,serial-reaction-time,1,R,1,1,25,3124,0,1,515.5999999940395,341,H
2023-03-16T12:52:09Z,5ckvwhwy,serial-reaction-time,1,P,1,1,26,3124,0,3,454.09999999403954,413,H
2023-03-16T12:52:10Z,5ckvwhwy,serial-reaction-time,1,R,1,1,27,3124,0,3,354.7999999821186,133,L
2023-03-16T12:52:10Z,5ckvwhwy,serial-reaction-time,1,P,1,1,28,3124,0,1,500.40000000596046,331,H
2023-03-16T12:52:11Z,5ckvwhwy,serial-reaction-time,1,R,1,1,29,3124,0,1,330.2999999821186,311,H
2023-03-16T12:52:12Z,5ckvwhwy,serial-reaction-time,1,P,1,1,30,3124,0,2,610.5,112,H
2023-03-16T12:52:12Z,5ckvwhwy,serial-reaction-time,1,R,1,1,31,3124,0,3,564.5,123,L
2023-03-16T12:52:13Z,5ckvwhwy,serial-reaction-time,1,P,1,1,32,3124,0,4,430.199999988079,234,H
2023-03-16T12:52:13Z,5ckvwhwy,serial-reaction-time,1,R,1,1,33,3124,0,4,413.59999999403954,344,L
2023-03-16T12:52:14Z,5ckvwhwy,serial-reaction-time,1,P,1,1,34,3124,0,3,439.699999988079,443,H
2023-03-16T12:52:15Z,5ckvwhwy,serial-reaction-time,1,R,1,1,35,3124,0,1,573.0999999940395,431,L
2023-03-16T12:52:15Z,5ckvwhwy,serial-reaction-time,1,P,1,1,36,3124,0,1,374.300000011921,311,H
2023-03-16T12:52:16Z,5ckvwhwy,serial-reaction-time,1,R,1,1,37,3124,0,4,485.199999988079,114,L
2023-03-16T12:52:17Z,5ckvwhwy,serial-reaction-time,1,P,1,1,38,3124,0,2,757.7999999821186,142,H
2023-03-16T12:52:17Z,5ckvwhwy,serial-reaction-time,1,R,1,1,39,3124,0,2,310.40000000596046,422,L
2023-03-16T12:52:18Z,5ckvwhwy,serial-reaction-time,1,P,1,1,40,3124,0,4,417.699999988079,224,H
2023-03-16T12:52:19Z,5ckvwhwy,serial-reaction-time,1,R,1,1,41,3124,0,2,513.5,242,T
2023-03-16T12:52:19Z,5ckvwhwy,serial-reaction-time,1,P,1,1,42,3124,0,3,548.2999999821186,423,H
2023-03-16T12:52:20Z,5ckvwhwy,serial-reaction-time,1,R,1,1,43,3124,0,2,576.6999999880791,232,T
2023-03-16T12:52:20Z,5ckvwhwy,serial-reaction-time,1,P,1,1,44,3124,0,1,342.2000000178814,321,H
2023-03-16T12:52:21Z,5ckvwhwy,serial-reaction-time,1,R,1,1,45,3124,0,4,565.1999999880791,214,H
2023-03-16T12:52:22Z,5ckvwhwy,serial-reaction-time,1,P,1,1,46,3124,0,2,530.5,142,H
2023-03-16T12:52:22Z,5ckvwhwy,serial-reaction-time,NA,R,1,1,47,3124,0,4,360,424,T
2023-03-16T12:52:23Z,5ckvwhwy,serial-reaction-time,1,R,1,0,47,3124,0,4,700.2999999821186,424,T
2023-03-16T12:52:23Z,5ckvwhwy,serial-reaction-time,1,P,1,1,48,3124,0,4,322,244,H
2023-03-16T12:52:24Z,5ckvwhwy,serial-reaction-time,NA,R,1,1,49,3124,0,2,461.7000000178814,442,L
2023-03-16T12:52:24Z,5ckvwhwy,serial-reaction-time,1,R,1,0,49,3124,0,2,769,442,L
2023-03-16T12:52:25Z,5ckvwhwy,serial-reaction-time,1,P,1,1,50,3124,0,3,646.5999999940395,423,H
2023-03-16T12:52:26Z,5ckvwhwy,serial-reaction-time,1,R,1,1,51,3124,0,1,468.5,231,L
2023-03-16T12:52:26Z,5ckvwhwy,serial-reaction-time,1,P,1,1,52,3124,0,1,349.19999998807907,311,H
2023-03-16T12:52:27Z,5ckvwhwy,serial-reaction-time,1,R,1,1,53,3124,0,1,309.30000001192093,111,R
2023-03-16T12:52:27Z,5ckvwhwy,serial-reaction-time,1,P,1,1,54,3124,0,2,550.2999999821186,112,H
2023-03-16T12:52:28Z,5ckvwhwy,serial-reaction-time,1,R,1,1,55,3124,0,2,332.69999998807907,122,H
2023-03-16T12:52:28Z,5ckvwhwy,serial-reaction-time,1,P,1,1,56,3124,0,4,515,224,H
2023-03-16T12:52:29Z,5ckvwhwy,serial-reaction-time,1,R,1,1,57,3124,0,2,468.7999999821186,242,T
2023-03-16T12:52:30Z,5ckvwhwy,serial-reaction-time,1,P,1,1,58,3124,0,3,548.0999999940395,423,H
2023-03-16T12:52:30Z,5ckvwhwy,serial-reaction-time,1,R,1,1,59,3124,0,1,416.800000011921,231,L
2023-03-16T12:52:31Z,5ckvwhwy,serial-reaction-time,1,P,1,1,60,3124,0,1,388.5,311,H
2023-03-16T12:52:32Z,5ckvwhwy,serial-reaction-time,1,R,1,1,61,3124,0,2,530.7999999821186,112,H
2023-03-16T12:52:32Z,5ckvwhwy,serial-reaction-time,1,P,1,1,62,3124,0,2,328.5,122,H
2023-03-16T12:52:33Z,5ckvwhwy,serial-reaction-time,1,R,1,1,63,3124,0,1,507.7000000178814,221,L
2023-03-16T12:52:33Z,5ckvwhwy,serial-reaction-time,1,P,1,1,64,3124,0,4,433,214,H
2023-03-16T12:52:34Z,5ckvwhwy,serial-reaction-time,1,R,1,1,65,3124,0,1,671.0999999940395,141,T
2023-03-16T12:52:35Z,5ckvwhwy,serial-reaction-time,1,P,1,1,66,3124,0,3,459.10000002384186,413,H
2023-03-16T12:52:35Z,5ckvwhwy,serial-reaction-time,1,R,1,1,67,3124,0,1,429.09999999403954,131,T
2023-03-16T12:52:36Z,5ckvwhwy,serial-reaction-time,1,P,1,1,68,3124,0,1,354.59999999403954,311,H
2023-03-16T12:52:36Z,5ckvwhwy,serial-reaction-time,1,R,1,1,69,3124,0,4,378.699999988079,114,L
2023-03-16T12:52:37Z,5ckvwhwy,serial-reaction-time,1,P,1,1,70,3124,0,2,557.4000000059605,142,H
2023-03-16T12:52:38Z,5ckvwhwy,serial-reaction-time,1,R,1,1,71,3124,0,4,351,424,T
2023-03-16T12:52:38Z,5ckvwhwy,serial-reaction-time,1,P,1,1,72,3124,0,4,442.7000000178814,244,H
2023-03-16T12:52:39Z,5ckvwhwy,serial-reaction-time,1,R,1,1,73,3124,0,1,537.5999999940395,441,L
2023-03-16T12:52:40Z,5ckvwhwy,serial-reaction-time,1,P,1,1,74,3124,0,3,475.10000002384186,413,H
2023-03-16T12:52:40Z,5ckvwhwy,serial-reaction-time,1,R,1,1,75,3124,0,4,370.90000000596046,134,L
2023-03-16T12:52:41Z,5ckvwhwy,serial-reaction-time,1,P,1,1,76,3124,0,1,360.59999999403954,341,H
2023-03-16T12:52:41Z,5ckvwhwy,serial-reaction-time,1,R,1,1,77,3124,0,1,340.40000000596046,411,L
2023-03-16T12:52:42Z,5ckvwhwy,serial-reaction-time,1,P,1,1,78,3124,0,2,380.2000000178814,112,H
2023-03-16T12:52:42Z,5ckvwhwy,serial-reaction-time,1,R,1,1,79,3124,0,1,448.10000002384186,121,T
2023-03-16T12:52:43Z,5ckvwhwy,serial-reaction-time,1,P,1,1,80,3124,0,4,383.300000011921,214,H
2023-03-16T12:52:48Z,5ckvwhwy,html-keyboard-response,NA,NA,NA,NA,NA,NA,NA,NA,NA,NA,NA
2023-03-16T12:52:49Z,5ckvwhwy,html-keyboard-response,NA,NA,NA,NA,NA,NA,NA,NA,NA,NA,NA
2023-03-16T12:52:50Z,5ckvwhwy,serial-reaction-time,1,R,2,1,1,3124,0,1,508.10000002384186,1,X
2023-03-16T12:52:51Z,5ckvwhwy,serial-reaction-time,1,P,2,1,2,3124,0,3,385.59999999403954,13,X
2023-03-16T12:52:51Z,5ckvwhwy,serial-reaction-time,1,R,2,1,3,3124,0,4,339.2999999821186,134,L
2023-03-16T12:52:52Z,5ckvwhwy,serial-reaction-time,1,P,2,1,4,3124,0,1,559.3999999761581,341,H
2023-03-16T12:52:53Z,5ckvwhwy,serial-reaction-time,1,R,2,1,5,3124,0,2,364.199999988079,412,L
2023-03-16T12:52:53Z,5ckvwhwy,serial-reaction-time,1,P,2,1,6,3124,0,2,424.300000011921,122,H
2023-03-16T12:52:54Z,5ckvwhwy,serial-reaction-time,NA,R,2,1,7,3124,0,4,345.40000000596046,224,H
2023-03-16T12:52:54Z,5ckvwhwy,serial-reaction-time,1,R,2,0,7,3124,0,4,672.7000000178814,224,H
2023-03-16T12:52:55Z,5ckvwhwy,serial-reaction-time,1,P,2,1,8,3124,0,4,267.69999998807907,244,H
2023-03-16T12:52:55Z,5ckvwhwy,serial-reaction-time,1,R,2,1,9,3124,0,1,436.7999999821186,441,L
2023-03-16T12:52:56Z,5ckvwhwy,serial-reaction-time,NA,P,2,1,10,3124,0,3,270.69999998807907,413,H
2023-03-16T12:52:56Z,5ckvwhwy,serial-reaction-time,1,P,2,0,10,3124,0,3,592.1999999880791,413,H
2023-03-16T12:52:56Z,5ckvwhwy,serial-reaction-time,1,R,2,1,11,3124,0,4,309.09999999403954,134,L
2023-03-16T12:52:57Z,5ckvwhwy,serial-reaction-time,1,P,2,1,12,3124,0,1,455.7000000178814,341,H
2023-03-16T12:52:58Z,5ckvwhwy,serial-reaction-time,1,R,2,1,13,3124,0,2,441.2999999821186,412,L
2023-03-16T12:52:58Z,5ckvwhwy,serial-reaction-time,1,P,2,1,14,3124,0,2,434.5,122,H
2023-03-16T12:52:59Z,5ckvwhwy,serial-reaction-time,1,R,2,1,15,3124,0,4,396.90000000596046,224,H
2023-03-16T12:52:59Z,5ckvwhwy,serial-reaction-time,1,P,2,1,16,3124,0,4,335.5,244,H
2023-03-16T12:53:00Z,5ckvwhwy,serial-reaction-time,1,R,2,1,17,3124,0,2,417.300000011921,442,L
2023-03-16T12:53:00Z,5ckvwhwy,serial-reaction-time,NA,P,2,1,18,3124,0,3,348.5,423,H
2023-03-16T12:53:01Z,5ckvwhwy,serial-reaction-time,1,P,2,0,18,3124,0,3,675.5,423,H
2023-03-16T12:53:01Z,5ckvwhwy,serial-reaction-time,1,R,2,1,19,3124,0,1,426.90000000596046,231,L
2023-03-16T12:53:02Z,5ckvwhwy,serial-reaction-time,NA,P,2,1,20,3124,0,1,370.7999999821186,311,H
2023-03-16T12:53:02Z,5ckvwhwy,serial-reaction-time,1,P,2,0,20,3124,0,1,371.5,311,H
2023-03-16T12:53:03Z,5ckvwhwy,serial-reaction-time,1,R,2,1,21,3124,0,2,557.3000000119209,112,H
2023-03-16T12:53:03Z,5ckvwhwy,serial-reaction-time,1,P,2,1,22,3124,0,2,356.59999999403954,122,H
2023-03-16T12:53:03Z,5ckvwhwy,serial-reaction-time,1,R,2,1,23,3124,0,2,291.5,222,R
2023-03-16T12:53:04Z,5ckvwhwy,serial-reaction-time,1,P,2,1,24,3124,0,4,375.10000002384186,224,H
2023-03-16T12:53:05Z,5ckvwhwy,serial-reaction-time,1,R,2,1,25,3124,0,1,437.09999999403954,241,L
2023-03-16T12:53:05Z,5ckvwhwy,serial-reaction-time,NA,P,2,1,26,3124,0,3,337,413,H
2023-03-16T12:53:05Z,5ckvwhwy,serial-reaction-time,1,P,2,0,26,3124,0,3,641,413,H
2023-03-16T12:53:06Z,5ckvwhwy,serial-reaction-time,1,R,2,1,27,3124,0,4,425.5,134,L
2023-03-16T12:53:07Z,5ckvwhwy,serial-reaction-time,1,P,2,1,28,3124,0,1,438.300000011921,341,H
2023-03-16T12:53:07Z,5ckvwhwy,serial-reaction-time,1,R,2,1,29,3124,0,3,423.09999999403954,413,H
2023-03-16T12:53:08Z,5ckvwhwy,serial-reaction-time,NA,P,2,1,30,3124,0,2,353.90000000596046,132,H
2023-03-16T12:53:08Z,5ckvwhwy,serial-reaction-time,NA,P,2,0,30,3124,0,2,648.1000000238419,132,H
2023-03-16T12:53:08Z,5ckvwhwy,serial-reaction-time,1,P,2,0,30,3124,0,2,1006.100000023842,132,H
2023-03-16T12:53:09Z,5ckvwhwy,serial-reaction-time,1,R,2,1,31,3124,0,1,479.2999999821186,321,H
2023-03-16T12:53:10Z,5ckvwhwy,serial-reaction-time,1,P,2,1,32,3124,0,4,362.09999999403954,214,H
2023-03-16T12:53:10Z,5ckvwhwy,serial-reaction-time,1,R,2,1,33,3124,0,4,442.7000000178814,144,L
2023-03-16T12:53:11Z,5ckvwhwy,serial-reaction-time,1,P,2,1,34,3124,0,3,573.3999999761581,443,H
2023-03-16T12:53:12Z,5ckvwhwy,serial-reaction-time,1,R,2,1,35,3124,0,2,520,432,L
2023-03-16T12:53:12Z,5ckvwhwy,serial-reaction-time,1,P,2,1,36,3124,0,1,414.59999999403954,321,H
2023-03-16T12:53:13Z,5ckvwhwy,serial-reaction-time,1,R,2,1,37,3124,0,1,464.2000000178814,211,L
2023-03-16T12:53:13Z,5ckvwhwy,serial-reaction-time,1,P,2,1,38,3124,0,2,456.199999988079,112,H
2023-03-16T12:53:14Z,5ckvwhwy,serial-reaction-time,1,R,2,1,39,3124,0,1,586.7000000178814,121,T
2023-03-16T12:53:15Z,5ckvwhwy,serial-reaction-time,1,P,2,1,40,3124,0,4,436.2999999821186,214,H
2023-03-16T12:53:15Z,5ckvwhwy,serial-reaction-time,1,R,2,1,41,3124,0,3,530.0999999940395,143,L
2023-03-16T12:53:16Z,5ckvwhwy,serial-reaction-time,1,P,2,1,42,3124,0,3,327.10000002384186,433,H
2023-03-16T12:53:17Z,5ckvwhwy,serial-reaction-time,1,R,2,1,43,3124,0,4,462.300000011921,334,L
2023-03-16T12:53:17Z,5ckvwhwy,serial-reaction-time,1,P,2,1,44,3124,0,1,546.5,341,H
2023-03-16T12:53:18Z,5ckvwhwy,serial-reaction-time,1,R,2,1,45,3124,0,1,353.7999999821186,411,L
2023-03-16T12:53:18Z,5ckvwhwy,serial-reaction-time,1,P,2,1,46,3124,0,2,563.1999999880791,112,H
2023-03-16T12:53:19Z,5ckvwhwy,serial-reaction-time,1,R,2,1,47,3124,0,1,475.90000000596046,121,T
2023-03-16T12:53:20Z,5ckvwhwy,serial-reaction-time,1,P,2,1,48,3124,0,4,498.10000002384186,214,H
2023-03-16T12:53:20Z,5ckvwhwy,serial-reaction-time,1,R,2,1,49,3124,0,3,571.8000000119209,143,L
2023-03-16T12:53:21Z,5ckvwhwy,serial-reaction-time,1,P,2,1,50,3124,0,3,339.5,433,H
2023-03-16T12:53:21Z,5ckvwhwy,serial-reaction-time,1,R,2,1,51,3124,0,3,318.2999999821186,333,R
2023-03-16T12:53:22Z,5ckvwhwy,serial-reaction-time,1,P,2,1,52,3124,0,1,491,331,H
2023-03-16T12:53:23Z,5ckvwhwy,serial-reaction-time,1,R,2,1,53,3124,0,2,451.7999999821186,312,L
2023-03-16T12:53:23Z,5ckvwhwy,serial-reaction-time,1,P,2,1,54,3124,0,2,382.09999999403954,122,H
2023-03-16T12:53:24Z,5ckvwhwy,serial-reaction-time,NA,R,2,1,55,3124,0,3,611.2000000178814,223,L
2023-03-16T12:53:24Z,5ckvwhwy,serial-reaction-time,1,R,2,0,55,3124,0,3,687.6000000238419,223,L
2023-03-16T12:53:25Z,5ckvwhwy,serial-reaction-time,NA,P,2,1,56,3124,0,4,397.09999999403954,234,H
2023-03-16T12:53:25Z,5ckvwhwy,serial-reaction-time,1,P,2,0,56,3124,0,4,663.5999999940395,234,H
2023-03-16T12:53:26Z,5ckvwhwy,serial-reaction-time,1,R,2,1,57,3124,0,3,415,343,T
2023-03-16T12:53:26Z,5ckvwhwy,serial-reaction-time,1,P,2,1,58,3124,0,3,366.5,433,H
2023-03-16T12:53:27Z,5ckvwhwy,serial-reaction-time,1,R,2,1,59,3124,0,1,455.5,331,H
2023-03-16T12:53:27Z,5ckvwhwy,serial-reaction-time,1,P,2,1,60,3124,0,1,373,311,H
2023-03-16T12:53:28Z,5ckvwhwy,serial-reaction-time,1,R,2,1,61,3124,0,4,502.39999997615814,114,L
2023-03-16T12:53:29Z,5ckvwhwy,serial-reaction-time,1,P,2,1,62,3124,0,2,622.4000000059605,142,H
2023-03-16T12:53:29Z,5ckvwhwy,serial-reaction-time,1,R,2,1,63,3124,0,1,570.7000000178814,421,L
2023-03-16T12:53:30Z,5ckvwhwy,serial-reaction-time,1,P,2,1,64,3124,0,4,382,214,H
2023-03-16T12:53:31Z,5ckvwhwy,serial-reaction-time,1,R,2,1,65,3124,0,3,505.7000000178814,143,L
2023-03-16T12:53:31Z,5ckvwhwy,serial-reaction-time,1,P,2,1,66,3124,0,3,308.40000000596046,433,H
2023-03-16T12:53:32Z,5ckvwhwy,serial-reaction-time,1,R,2,1,67,3124,0,4,409.699999988079,334,L
2023-03-16T12:53:32Z,5ckvwhwy,serial-reaction-time,1,P,2,1,68,3124,0,1,532.7999999821186,341,H
2023-03-16T12:53:33Z,5ckvwhwy,serial-reaction-time,1,R,2,1,69,3124,0,1,360.7999999821186,411,L
2023-03-16T12:53:34Z,5ckvwhwy,serial-reaction-time,1,P,2,1,70,3124,0,2,565.0999999940395,112,H
2023-03-16T12:53:34Z,5ckvwhwy,serial-reaction-time,1,R,2,1,71,3124,0,3,587.7000000178814,123,L
2023-03-16T12:53:35Z,5ckvwhwy,serial-reaction-time,1,P,2,1,72,3124,0,4,353,234,H
2023-03-16T12:53:35Z,5ckvwhwy,serial-reaction-time,1,R,2,1,73,3124,0,1,465.40000000596046,341,H
2023-03-16T12:53:36Z,5ckvwhwy,serial-reaction-time,1,P,2,1,74,3124,0,3,487.09999999403954,413,H
2023-03-16T12:53:37Z,5ckvwhwy,serial-reaction-time,1,R,2,1,75,3124,0,1,470.699999988079,131,T
2023-03-16T12:53:37Z,5ckvwhwy,serial-reaction-time,1,P,2,1,76,3124,0,1,361.2000000178814,311,H
2023-03-16T12:53:38Z,5ckvwhwy,serial-reaction-time,NA,R,2,1,77,3124,0,3,449.39999997615814,113,L
2023-03-16T12:53:38Z,5ckvwhwy,serial-reaction-time,1,R,2,0,77,3124,0,3,753,113,L
2023-03-16T12:53:39Z,5ckvwhwy,serial-reaction-time,1,P,2,1,78,3124,0,2,806.0999999940395,132,H
2023-03-16T12:53:40Z,5ckvwhwy,serial-reaction-time,1,R,2,1,79,3124,0,4,426.199999988079,324,L
2023-03-16T12:53:40Z,5ckvwhwy,serial-reaction-time,1,P,2,1,80,3124,0,4,353.30000001192093,244,H
2023-03-16T12:53:45Z,5ckvwhwy,html-keyboard-response,NA,NA,NA,NA,NA,NA,NA,NA,NA,NA,NA
2023-03-16T12:53:46Z,5ckvwhwy,html-keyboard-response,NA,NA,NA,NA,NA,NA,NA,NA,NA,NA,NA
2023-03-16T12:53:48Z,5ckvwhwy,serial-reaction-time,1,R,3,1,1,3124,0,1,467.199999988079,1,X
2023-03-16T12:53:48Z,5ckvwhwy,serial-reaction-time,1,P,3,1,2,3124,0,3,538.5999999940395,13,X
2023-03-16T12:53:49Z,5ckvwhwy,serial-reaction-time,1,R,3,1,3,3124,0,2,455.90000000596046,132,H
2023-03-16T12:53:49Z,5ckvwhwy,serial-reaction-time,1,P,3,1,4,3124,0,1,451.5,321,H
2023-03-16T12:53:50Z,5ckvwhwy,serial-reaction-time,NA,R,3,1,5,3124,0,4,365.5,214,H
2023-03-16T12:53:50Z,5ckvwhwy,serial-reaction-time,1,R,3,0,5,3124,0,4,649.4000000059605,214,H
2023-03-16T12:53:51Z,5ckvwhwy,serial-reaction-time,1,P,3,1,6,3124,0,2,547.5999999940395,142,H
2023-03-16T12:53:52Z,5ckvwhwy,serial-reaction-time,1,R,3,1,7,3124,0,1,443.7999999821186,421,L
2023-03-16T12:53:52Z,5ckvwhwy,serial-reaction-time,1,P,3,1,8,3124,0,4,489.39999997615814,214,H
2023-03-16T12:53:53Z,5ckvwhwy,serial-reaction-time,1,R,3,1,9,3124,0,2,663.6999999880791,142,H
2023-03-16T12:53:54Z,5ckvwhwy,serial-reaction-time,1,P,3,1,10,3124,0,3,505.90000000596046,423,H
2023-03-16T12:53:54Z,5ckvwhwy,serial-reaction-time,1,R,3,1,11,3124,0,1,422.800000011921,231,L
2023-03-16T12:53:55Z,5ckvwhwy,serial-reaction-time,1,P,3,1,12,3124,0,1,353.2999999821186,311,H
2023-03-16T12:53:56Z,5ckvwhwy,serial-reaction-time,1,R,3,1,13,3124,0,3,674.3999999761581,113,L
2023-03-16T12:53:56Z,5ckvwhwy,serial-reaction-time,1,P,3,1,14,3124,0,2,542.1999999880791,132,H
2023-03-16T12:53:57Z,5ckvwhwy,serial-reaction-time,1,R,3,1,15,3124,0,1,565.3000000119209,321,H
2023-03-16T12:53:58Z,5ckvwhwy,serial-reaction-time,1,P,3,1,16,3124,0,4,485.300000011921,214,H
2023-03-16T12:53:58Z,5ckvwhwy,serial-reaction-time,1,R,3,1,17,3124,0,1,597.9000000059605,141,T
2023-03-16T12:53:59Z,5ckvwhwy,serial-reaction-time,1,P,3,1,18,3124,0,3,448.90000000596046,413,H
2023-03-16T12:54:00Z,5ckvwhwy,serial-reaction-time,1,R,3,1,19,3124,0,4,399.7000000178814,134,L
2023-03-16T12:54:00Z,5ckvwhwy,serial-reaction-time,1,P,3,1,20,3124,0,1,432.5,341,H
2023-03-16T12:54:01Z,5ckvwhwy,serial-reaction-time,1,R,3,1,21,3124,0,2,446,412,L
2023-03-16T12:54:01Z,5ckvwhwy,serial-reaction-time,1,P,3,1,22,3124,0,2,371.300000011921,122,H
2023-03-16T12:54:02Z,5ckvwhwy,serial-reaction-time,1,R,3,1,23,3124,0,2,326.2999999821186,222,R
2023-03-16T12:54:02Z,5ckvwhwy,serial-reaction-time,1,P,3,1,24,3124,0,4,371,224,H
2023-03-16T12:54:03Z,5ckvwhwy,serial-reaction-time,1,R,3,1,25,3124,0,1,539.5,241,L
2023-03-16T12:54:04Z,5ckvwhwy,serial-reaction-time,1,P,3,1,26,3124,0,3,470.199999988079,413,H
2023-03-16T12:54:04Z,5ckvwhwy,serial-reaction-time,1,R,3,1,27,3124,0,3,317.5,133,L
2023-03-16T12:54:05Z,5ckvwhwy,serial-reaction-time,1,P,3,1,28,3124,0,1,370.5,331,H
2023-03-16T12:54:05Z,5ckvwhwy,serial-reaction-time,NA,R,3,1,29,3124,0,2,475,312,L
2023-03-16T12:54:06Z,5ckvwhwy,serial-reaction-time,1,R,3,0,29,3124,0,2,770.1999999880791,312,L
2023-03-16T12:54:06Z,5ckvwhwy,serial-reaction-time,1,P,3,1,30,3124,0,2,335.59999999403954,122,H
2023-03-16T12:54:07Z,5ckvwhwy,serial-reaction-time,1,R,3,1,31,3124,0,2,352.19999998807907,222,R
2023-03-16T12:54:07Z,5ckvwhwy,serial-reaction-time,1,P,3,1,32,3124,0,4,436.2999999821186,224,H
2023-03-16T12:54:08Z,5ckvwhwy,serial-reaction-time,NA,R,3,1,33,3124,0,3,374.699999988079,243,L
2023-03-16T12:54:08Z,5ckvwhwy,serial-reaction-time,1,R,3,0,33,3124,0,3,714,243,L
2023-03-16T12:54:09Z,5ckvwhwy,serial-reaction-time,1,P,3,1,34,3124,0,3,303.09999999403954,433,H
2023-03-16T12:54:09Z,5ckvwhwy,serial-reaction-time,1,R,3,1,35,3124,0,1,465.300000011921,331,H
2023-03-16T12:54:10Z,5ckvwhwy,serial-reaction-time,1,P,3,1,36,3124,0,1,335.2999999821186,311,H
2023-03-16T12:54:10Z,5ckvwhwy,serial-reaction-time,1,R,3,1,37,3124,0,2,588.9000000059605,112,H
2023-03-16T12:54:11Z,5ckvwhwy,serial-reaction-time,1,P,3,1,38,3124,0,2,304.89999997615814,122,H
2023-03-16T12:54:12Z,5ckvwhwy,serial-reaction-time,1,R,3,1,39,3124,0,1,637.9000000059605,221,L
2023-03-16T12:54:12Z,5ckvwhwy,serial-reaction-time,1,P,3,1,40,3124,0,4,454.09999999403954,214,H
2023-03-16T12:54:13Z,5ckvwhwy,serial-reaction-time,1,R,3,1,41,3124,0,1,649.7999999821186,141,T
2023-03-16T12:54:14Z,5ckvwhwy,serial-reaction-time,1,P,3,1,42,3124,0,3,480.09999999403954,413,H
2023-03-16T12:54:14Z,5ckvwhwy,serial-reaction-time,1,R,3,1,43,3124,0,4,430.40000000596046,134,L
2023-03-16T12:54:15Z,5ckvwhwy,serial-reaction-time,1,P,3,1,44,3124,0,1,546.3000000119209,341,H
2023-03-16T12:54:16Z,5ckvwhwy,serial-reaction-time,1,R,3,1,45,3124,0,3,646.7999999821186,413,H
2023-03-16T12:54:16Z,5ckvwhwy,serial-reaction-time,1,P,3,1,46,3124,0,2,356.09999999403954,132,H
2023-03-16T12:54:17Z,5ckvwhwy,serial-reaction-time,1,R,3,1,47,3124,0,4,511.90000000596046,324,L
2023-03-16T12:54:17Z,5ckvwhwy,serial-reaction-time,1,P,3,1,48,3124,0,4,348.40000000596046,244,H
2023-03-16T12:54:18Z,5ckvwhwy,serial-reaction-time,NA,R,3,1,49,3124,0,1,355.59999999403954,441,L
2023-03-16T12:54:18Z,5ckvwhwy,serial-reaction-time,1,R,3,0,49,3124,0,1,693.7999999821186,441,L
2023-03-16T12:54:19Z,5ckvwhwy,serial-reaction-time,1,P,3,1,50,3124,0,3,724.3000000119209,413,H
2023-03-16T12:54:20Z,5ckvwhwy,serial-reaction-time,1,R,3,1,51,3124,0,2,561,132,H
2023-03-16T12:54:21Z,5ckvwhwy,serial-reaction-time,1,P,3,1,52,3124,0,1,453.5,321,H
2023-03-16T12:54:21Z,5ckvwhwy,serial-reaction-time,1,R,3,1,53,3124,0,2,504.2000000178814,212,T
2023-03-16T12:54:22Z,5ckvwhwy,serial-reaction-time,1,P,3,1,54,3124,0,2,373.90000000596046,122,H
2023-03-16T12:54:22Z,5ckvwhwy,serial-reaction-time,1,R,3,1,55,3124,0,2,296.59999999403954,222,R
2023-03-16T12:54:23Z,5ckvwhwy,serial-reaction-time,1,P,3,1,56,3124,0,4,391.5,224,H
2023-03-16T12:54:23Z,5ckvwhwy,serial-reaction-time,1,R,3,1,57,3124,0,1,563.2000000178814,241,L
2023-03-16T12:54:24Z,5ckvwhwy,serial-reaction-time,1,P,3,1,58,3124,0,3,592.5999999940395,413,H
2023-03-16T12:54:25Z,5ckvwhwy,serial-reaction-time,1,R,3,1,59,3124,0,2,848.9000000059605,132,H
2023-03-16T12:54:26Z,5ckvwhwy,serial-reaction-time,1,P,3,1,60,3124,0,1,397,321,H
2023-03-16T12:54:26Z,5ckvwhwy,serial-reaction-time,1,R,3,1,61,3124,0,4,429.7999999821186,214,H
2023-03-16T12:54:27Z,5ckvwhwy,serial-reaction-time,1,P,3,1,62,3124,0,2,554,142,H
2023-03-16T12:54:28Z,5ckvwhwy,serial-reaction-time,NA,R,3,1,63,3124,0,4,399.800000011921,424,T
2023-03-16T12:54:28Z,5ckvwhwy,serial-reaction-time,1,R,3,0,63,3124,0,4,717.2000000178814,424,T
2023-03-16T12:54:28Z,5ckvwhwy,serial-reaction-time,1,P,3,1,64,3124,0,4,324.5,244,H
2023-03-16T12:54:29Z,5ckvwhwy,serial-reaction-time,NA,R,3,1,65,3124,0,3,389.90000000596046,443,H
2023-03-16T12:54:29Z,5ckvwhwy,serial-reaction-time,1,R,3,0,65,3124,0,3,693.6000000238419,443,H
2023-03-16T12:54:30Z,5ckvwhwy,serial-reaction-time,1,P,3,1,66,3124,0,3,337.60000002384186,433,H
2023-03-16T12:54:30Z,5ckvwhwy,serial-reaction-time,1,R,3,1,67,3124,0,3,343.59999999403954,333,R
2023-03-16T12:54:31Z,5ckvwhwy,serial-reaction-time,1,P,3,1,68,3124,0,1,486,331,H
2023-03-16T12:54:32Z,5ckvwhwy,serial-reaction-time,1,R,3,1,69,3124,0,2,668.9000000059605,312,L
2023-03-16T12:54:32Z,5ckvwhwy,serial-reaction-time,1,P,3,1,70,3124,0,2,377.2999999821186,122,H
2023-03-16T12:54:33Z,5ckvwhwy,serial-reaction-time,1,R,3,1,71,3124,0,2,361.09999999403954,222,R
2023-03-16T12:54:33Z,5ckvwhwy,serial-reaction-time,1,P,3,1,72,3124,0,4,472,224,H
2023-03-16T12:54:34Z,5ckvwhwy,serial-reaction-time,1,R,3,1,73,3124,0,3,568.3000000119209,243,L
2023-03-16T12:54:35Z,5ckvwhwy,serial-reaction-time,1,P,3,1,74,3124,0,3,343.5,433,H
2023-03-16T12:54:35Z,5ckvwhwy,serial-reaction-time,1,R,3,1,75,3124,0,3,333,333,R
2023-03-16T12:54:36Z,5ckvwhwy,serial-reaction-time,1,P,3,1,76,3124,0,1,453.59999999403954,331,H
2023-03-16T12:54:36Z,5ckvwhwy,serial-reaction-time,1,R,3,1,77,3124,0,2,493.59999999403954,312,L
2023-03-16T12:54:37Z,5ckvwhwy,serial-reaction-time,1,P,3,1,78,3124,0,2,395.90000000596046,122,H
2023-03-16T12:54:38Z,5ckvwhwy,serial-reaction-time,1,R,3,1,79,3124,0,4,481.40000000596046,224,H
2023-03-16T12:54:38Z,5ckvwhwy,serial-reaction-time,1,P,3,1,80,3124,0,4,327.7999999821186,244,H
2023-03-16T12:54:43Z,5ckvwhwy,html-keyboard-response,NA,NA,NA,NA,NA,NA,NA,NA,NA,NA,NA
2023-03-16T12:54:44Z,5ckvwhwy,html-keyboard-response,NA,NA,NA,NA,NA,NA,NA,NA,NA,NA,NA
2023-03-16T12:54:45Z,5ckvwhwy,serial-reaction-time,1,R,4,1,1,3124,0,1,409,1,X
2023-03-16T12:54:46Z,5ckvwhwy,serial-reaction-time,1,P,4,1,2,3124,0,3,425.300000011921,13,X
2023-03-16T12:54:47Z,5ckvwhwy,serial-reaction-time,1,R,4,1,3,3124,0,2,426.40000000596046,132,H
2023-03-16T12:54:47Z,5ckvwhwy,serial-reaction-time,1,P,4,1,4,3124,0,1,468.09999999403954,321,H
2023-03-16T12:54:48Z,5ckvwhwy,serial-reaction-time,1,R,4,1,5,3124,0,1,410.699999988079,211,L
2023-03-16T12:54:48Z,5ckvwhwy,serial-reaction-time,1,P,4,1,6,3124,0,2,485.2999999821186,112,H
2023-03-16T12:54:49Z,5ckvwhwy,serial-reaction-time,1,R,4,1,7,3124,0,3,484.40000000596046,123,L
2023-03-16T12:54:49Z,5ckvwhwy,serial-reaction-time,1,P,4,1,8,3124,0,4,295.80000001192093,234,H
2023-03-16T12:54:50Z,5ckvwhwy,serial-reaction-time,1,R,4,1,9,3124,0,4,370.300000011921,344,L
2023-03-16T12:54:51Z,5ckvwhwy,serial-reaction-time,1,P,4,1,10,3124,0,3,442.5,443,H
2023-03-16T12:54:51Z,5ckvwhwy,serial-reaction-time,1,R,4,1,11,3124,0,2,370.7999999821186,432,L
2023-03-16T12:54:52Z,5ckvwhwy,serial-reaction-time,1,P,4,1,12,3124,0,1,322.7999999821186,321,H
2023-03-16T12:54:52Z,5ckvwhwy,serial-reaction-time,1,R,4,1,13,3124,0,4,472.2000000178814,214,H
2023-03-16T12:54:53Z,5ckvwhwy,serial-reaction-time,1,P,4,1,14,3124,0,2,522.9000000059605,142,H
2023-03-16T12:54:54Z,5ckvwhwy,serial-reaction-time,1,R,4,1,15,3124,0,1,535.0999999940395,421,L
2023-03-16T12:54:54Z,5ckvwhwy,serial-reaction-time,1,P,4,1,16,3124,0,4,544.0999999940395,214,H
2023-03-16T12:54:55Z,5ckvwhwy,serial-reaction-time,1,R,4,1,17,3124,0,2,401.2999999821186,142,H
2023-03-16T12:54:56Z,5ckvwhwy,serial-reaction-time,1,P,4,1,18,3124,0,3,510,423,H
2023-03-16T12:54:56Z,5ckvwhwy,serial-reaction-time,1,R,4,1,19,3124,0,2,472,232,T
2023-03-16T12:54:57Z,5ckvwhwy,serial-reaction-time,1,P,4,1,20,3124,0,1,358.59999999403954,321,H
2023-03-16T12:54:57Z,5ckvwhwy,serial-reaction-time,NA,R,4,1,21,3124,0,1,545,211,L
2023-03-16T12:54:58Z,5ckvwhwy,serial-reaction-time,1,R,4,0,21,3124,0,1,857.8000000119209,211,L
2023-03-16T12:54:59Z,5ckvwhwy,serial-reaction-time,1,P,4,1,22,3124,0,2,564.5999999940395,112,H
2023-03-16T12:54:59Z,5ckvwhwy,serial-reaction-time,1,R,4,1,23,3124,0,2,398.5,122,H
2023-03-16T12:55:00Z,5ckvwhwy,serial-reaction-time,1,P,4,1,24,3124,0,4,414.90000000596046,224,H
2023-03-16T12:55:00Z,5ckvwhwy,serial-reaction-time,1,R,4,1,25,3124,0,1,727.2000000178814,241,L
2023-03-16T12:55:01Z,5ckvwhwy,serial-reaction-time,1,P,4,1,26,3124,0,3,530.2000000178814,413,H
2023-03-16T12:55:02Z,5ckvwhwy,serial-reaction-time,1,R,4,1,27,3124,0,3,469.5,133,L
2023-03-16T12:55:02Z,5ckvwhwy,serial-reaction-time,1,P,4,1,28,3124,0,1,429.5,331,H
2023-03-16T12:55:03Z,5ckvwhwy,serial-reaction-time,1,R,4,1,29,3124,0,3,497,313,T
2023-03-16T12:55:04Z,5ckvwhwy,serial-reaction-time,1,P,4,1,30,3124,0,2,547.5999999940395,132,H
2023-03-16T12:55:04Z,5ckvwhwy,serial-reaction-time,1,R,4,1,31,3124,0,2,454.59999999403954,322,L
2023-03-16T12:55:05Z,5ckvwhwy,serial-reaction-time,1,P,4,1,32,3124,0,4,364.300000011921,224,H
2023-03-16T12:55:06Z,5ckvwhwy,serial-reaction-time,1,R,4,1,33,3124,0,3,578.4000000059605,243,L
2023-03-16T12:55:06Z,5ckvwhwy,serial-reaction-time,1,P,4,1,34,3124,0,3,408.300000011921,433,H
2023-03-16T12:55:07Z,5ckvwhwy,serial-reaction-time,1,R,4,1,35,3124,0,4,464.699999988079,334,L
2023-03-16T12:55:08Z,5ckvwhwy,serial-reaction-time,1,P,4,1,36,3124,0,1,587.3000000119209,341,H
2023-03-16T12:55:08Z,5ckvwhwy,serial-reaction-time,1,R,4,1,37,3124,0,1,310.10000002384186,411,L
2023-03-16T12:55:09Z,5ckvwhwy,serial-reaction-time,1,P,4,1,38,3124,0,2,503.40000000596046,112,H
2023-03-16T12:55:09Z,5ckvwhwy,serial-reaction-time,1,R,4,1,39,3124,0,3,565.0999999940395,123,L
2023-03-16T12:55:10Z,5ckvwhwy,serial-reaction-time,1,P,4,1,40,3124,0,4,353.5,234,H
2023-03-16T12:55:11Z,5ckvwhwy,serial-reaction-time,1,R,4,1,41,3124,0,1,581.5,341,H
2023-03-16T12:55:11Z,5ckvwhwy,serial-reaction-time,1,P,4,1,42,3124,0,3,425.59999999403954,413,H
2023-03-16T12:55:12Z,5ckvwhwy,serial-reaction-time,1,R,4,1,43,3124,0,3,362.699999988079,133,L
2023-03-16T12:55:12Z,5ckvwhwy,serial-reaction-time,1,P,4,1,44,3124,0,1,421.40000000596046,331,H
2023-03-16T12:55:13Z,5ckvwhwy,serial-reaction-time,1,R,4,1,45,3124,0,3,600.8999999761581,313,T
2023-03-16T12:55:14Z,5ckvwhwy,serial-reaction-time,1,P,4,1,46,3124,0,2,577.5,132,H
2023-03-16T12:55:14Z,5ckvwhwy,serial-reaction-time,1,R,4,1,47,3124,0,4,344.7000000178814,324,L
2023-03-16T12:55:15Z,5ckvwhwy,serial-reaction-time,1,P,4,1,48,3124,0,4,324.89999997615814,244,H
2023-03-16T12:55:15Z,5ckvwhwy,serial-reaction-time,1,R,4,1,49,3124,0,2,439.40000000596046,442,L
2023-03-16T12:55:16Z,5ckvwhwy,serial-reaction-time,1,P,4,1,50,3124,0,3,377.7000000178814,423,H
2023-03-16T12:55:16Z,5ckvwhwy,serial-reaction-time,1,R,4,1,51,3124,0,3,361.59999999403954,233,L
2023-03-16T12:55:17Z,5ckvwhwy,serial-reaction-time,NA,P,4,1,52,3124,0,1,370.699999988079,331,H
2023-03-16T12:55:17Z,5ckvwhwy,serial-reaction-time,1,P,4,0,52,3124,0,1,681.7999999821186,331,H
2023-03-16T12:55:18Z,5ckvwhwy,serial-reaction-time,1,R,4,1,53,3124,0,4,445.40000000596046,314,L
2023-03-16T12:55:18Z,5ckvwhwy,serial-reaction-time,NA,P,4,1,54,3124,0,2,311.59999999403954,142,H
2023-03-16T12:55:19Z,5ckvwhwy,serial-reaction-time,1,P,4,0,54,3124,0,2,649.3000000119209,142,H
2023-03-16T12:55:19Z,5ckvwhwy,serial-reaction-time,1,R,4,1,55,3124,0,2,384.7000000178814,422,L
2023-03-16T12:55:20Z,5ckvwhwy,serial-reaction-time,1,P,4,1,56,3124,0,4,427.40000000596046,224,H
2023-03-16T12:55:21Z,5ckvwhwy,serial-reaction-time,1,R,4,1,57,3124,0,2,606,242,T
2023-03-16T12:55:21Z,5ckvwhwy,serial-reaction-time,NA,P,4,1,58,3124,0,3,354.90000000596046,423,H
2023-03-16T12:55:22Z,5ckvwhwy,serial-reaction-time,1,P,4,0,58,3124,0,3,864,423,H
2023-03-16T12:55:22Z,5ckvwhwy,serial-reaction-time,1,R,4,1,59,3124,0,4,431,234,H
2023-03-16T12:55:23Z,5ckvwhwy,serial-reaction-time,1,P,4,1,60,3124,0,1,621.3999999761581,341,H
2023-03-16T12:55:24Z,5ckvwhwy,serial-reaction-time,1,R,4,1,61,3124,0,3,535.4000000059605,413,H
2023-03-16T12:55:24Z,5ckvwhwy,serial-reaction-time,1,P,4,1,62,3124,0,2,404.2000000178814,132,H
2023-03-16T12:55:25Z,5ckvwhwy,serial-reaction-time,1,R,4,1,63,3124,0,4,470.89999997615814,324,L
2023-03-16T12:55:25Z,5ckvwhwy,serial-reaction-time,1,P,4,1,64,3124,0,4,387.699999988079,244,H
2023-03-16T12:55:26Z,5ckvwhwy,serial-reaction-time,1,R,4,1,65,3124,0,4,353.40000000596046,444,R
2023-03-16T12:55:27Z,5ckvwhwy,serial-reaction-time,1,P,4,1,66,3124,0,3,510.59999999403954,443,H
2023-03-16T12:55:27Z,5ckvwhwy,serial-reaction-time,1,R,4,1,67,3124,0,3,306.90000000596046,433,H
2023-03-16T12:55:28Z,5ckvwhwy,serial-reaction-time,1,P,4,1,68,3124,0,1,564.3000000119209,331,H
2023-03-16T12:55:28Z,5ckvwhwy,serial-reaction-time,1,R,4,1,69,3124,0,1,311.5,311,H
2023-03-16T12:55:29Z,5ckvwhwy,serial-reaction-time,1,P,4,1,70,3124,0,2,570.6999999880791,112,H
2023-03-16T12:55:30Z,5ckvwhwy,serial-reaction-time,1,R,4,1,71,3124,0,4,483.199999988079,124,L
2023-03-16T12:55:30Z,5ckvwhwy,serial-reaction-time,1,P,4,1,72,3124,0,4,321.19999998807907,244,H
2023-03-16T12:55:31Z,5ckvwhwy,serial-reaction-time,1,R,4,1,73,3124,0,3,433.199999988079,443,H
2023-03-16T12:55:31Z,5ckvwhwy,serial-reaction-time,1,P,4,1,74,3124,0,3,275.59999999403954,433,H
2023-03-16T12:55:32Z,5ckvwhwy,serial-reaction-time,1,R,4,1,75,3124,0,3,407.59999999403954,333,R
2023-03-16T12:55:32Z,5ckvwhwy,serial-reaction-time,1,P,4,1,76,3124,0,1,464.800000011921,331,H
2023-03-16T12:55:33Z,5ckvwhwy,serial-reaction-time,1,R,4,1,77,3124,0,2,649.7000000178814,312,L
2023-03-16T12:55:34Z,5ckvwhwy,serial-reaction-time,1,P,4,1,78,3124,0,2,365.5,122,H
2023-03-16T12:55:34Z,5ckvwhwy,serial-reaction-time,1,R,4,1,79,3124,0,1,552.3999999761581,221,L
2023-03-16T12:55:35Z,5ckvwhwy,serial-reaction-time,1,P,4,1,80,3124,0,4,472.300000011921,214,H
2023-03-16T12:55:40Z,5ckvwhwy,html-keyboard-response,NA,NA,NA,NA,NA,NA,NA,NA,NA,NA,NA
2023-03-16T12:55:41Z,5ckvwhwy,html-keyboard-response,NA,NA,NA,NA,NA,NA,NA,NA,NA,NA,NA
2023-03-16T12:55:43Z,5ckvwhwy,serial-reaction-time,1,R,5,1,1,3124,0,2,739.2999999821186,2,X
2023-03-16T12:55:43Z,5ckvwhwy,serial-reaction-time,1,P,5,1,2,3124,0,3,338,23,X
2023-03-16T12:55:44Z,5ckvwhwy,serial-reaction-time,1,R,5,1,3,3124,0,4,341.89999997615814,234,H
2023-03-16T12:55:44Z,5ckvwhwy,serial-reaction-time,1,P,5,1,4,3124,0,1,369.300000011921,341,H
2023-03-16T12:55:45Z,5ckvwhwy,serial-reaction-time,1,R,5,1,5,3124,0,2,373.699999988079,412,L
2023-03-16T12:55:45Z,5ckvwhwy,serial-reaction-time,1,P,5,1,6,3124,0,2,385.89999997615814,122,H
2023-03-16T12:55:46Z,5ckvwhwy,serial-reaction-time,NA,R,5,1,7,3124,0,4,346.69999998807907,224,H
2023-03-16T12:55:46Z,5ckvwhwy,serial-reaction-time,1,R,5,0,7,3124,0,4,651.8999999761581,224,H
2023-03-16T12:55:47Z,5ckvwhwy,serial-reaction-time,1,P,5,1,8,3124,0,4,326.90000000596046,244,H
2023-03-16T12:55:47Z,5ckvwhwy,serial-reaction-time,1,R,5,1,9,3124,0,4,335,444,R
2023-03-16T12:55:48Z,5ckvwhwy,serial-reaction-time,1,P,5,1,10,3124,0,3,436.59999999403954,443,H
2023-03-16T12:55:48Z,5ckvwhwy,serial-reaction-time,1,R,5,1,11,3124,0,4,384,434,T
2023-03-16T12:55:49Z,5ckvwhwy,serial-reaction-time,1,P,5,1,12,3124,0,1,511,341,H
2023-03-16T12:55:49Z,5ckvwhwy,serial-reaction-time,1,R,5,1,13,3124,0,3,479.5,413,H
2023-03-16T12:55:50Z,5ckvwhwy,serial-reaction-time,1,P,5,1,14,3124,0,2,536.9000000059605,132,H
2023-03-16T12:55:51Z,5ckvwhwy,serial-reaction-time,1,R,5,1,15,3124,0,4,393.699999988079,324,L
2023-03-16T12:55:51Z,5ckvwhwy,serial-reaction-time,1,P,5,1,16,3124,0,4,375.5,244,H
2023-03-16T12:55:52Z,5ckvwhwy,serial-reaction-time,1,R,5,1,17,3124,0,4,341.5,444,R
2023-03-16T12:55:52Z,5ckvwhwy,serial-reaction-time,NA,P,5,1,18,3124,0,3,446.59999999403954,443,H
2023-03-16T12:55:53Z,5ckvwhwy,serial-reaction-time,1,P,5,0,18,3124,0,3,713.9000000059605,443,H
2023-03-16T12:55:53Z,5ckvwhwy,serial-reaction-time,1,R,5,1,19,3124,0,2,542.5999999940395,432,L
2023-03-16T12:55:54Z,5ckvwhwy,serial-reaction-time,1,P,5,1,20,3124,0,1,380.39999997615814,321,H
2023-03-16T12:55:55Z,5ckvwhwy,serial-reaction-time,1,R,5,1,21,3124,0,3,704.5999999940395,213,L
2023-03-16T12:55:56Z,5ckvwhwy,serial-reaction-time,1,P,5,1,22,3124,0,2,725.1000000238419,132,H
2023-03-16T12:55:56Z,5ckvwhwy,serial-reaction-time,1,R,5,1,23,3124,0,2,381.699999988079,322,L
2023-03-16T12:55:57Z,5ckvwhwy,serial-reaction-time,1,P,5,1,24,3124,0,4,381.09999999403954,224,H
2023-03-16T12:55:57Z,5ckvwhwy,serial-reaction-time,1,R,5,1,25,3124,0,2,410.40000000596046,242,T
2023-03-16T12:55:58Z,5ckvwhwy,serial-reaction-time,1,P,5,1,26,3124,0,3,387.90000000596046,423,H
2023-03-16T12:55:58Z,5ckvwhwy,serial-reaction-time,1,R,5,1,27,3124,0,4,411.5,234,H
2023-03-16T12:55:59Z,5ckvwhwy,serial-reaction-time,NA,P,5,1,28,3124,0,1,389.5,341,H
2023-03-16T12:55:59Z,5ckvwhwy,serial-reaction-time,1,P,5,0,28,3124,0,1,747.8000000119209,341,H
2023-03-16T12:56:00Z,5ckvwhwy,serial-reaction-time,1,R,5,1,29,3124,0,1,403,411,L
2023-03-16T12:56:01Z,5ckvwhwy,serial-reaction-time,1,P,5,1,30,3124,0,2,515.5,112,H
2023-03-16T12:56:01Z,5ckvwhwy,serial-reaction-time,1,R,5,1,31,3124,0,3,547.2999999821186,123,L
2023-03-16T12:56:02Z,5ckvwhwy,serial-reaction-time,1,P,5,1,32,3124,0,4,287.19999998807907,234,H
2023-03-16T12:56:02Z,5ckvwhwy,serial-reaction-time,1,R,5,1,33,3124,0,2,565.4000000059605,342,L
2023-03-16T12:56:03Z,5ckvwhwy,serial-reaction-time,1,P,5,1,34,3124,0,3,550.0999999940395,423,H
2023-03-16T12:56:04Z,5ckvwhwy,serial-reaction-time,1,R,5,1,35,3124,0,4,356.59999999403954,234,H
2023-03-16T12:56:04Z,5ckvwhwy,serial-reaction-time,1,P,5,1,36,3124,0,1,451,341,H
2023-03-16T12:56:05Z,5ckvwhwy,serial-reaction-time,1,R,5,1,37,3124,0,3,469.2999999821186,413,H
2023-03-16T12:56:05Z,5ckvwhwy,serial-reaction-time,1,P,5,1,38,3124,0,2,372.7999999821186,132,H
2023-03-16T12:56:06Z,5ckvwhwy,serial-reaction-time,1,R,5,1,39,3124,0,1,352.90000000596046,321,H
2023-03-16T12:56:06Z,5ckvwhwy,serial-reaction-time,1,P,5,1,40,3124,0,4,433.90000000596046,214,H
2023-03-16T12:56:07Z,5ckvwhwy,serial-reaction-time,1,R,5,1,41,3124,0,1,723.5999999940395,141,T
2023-03-16T12:56:08Z,5ckvwhwy,serial-reaction-time,1,P,5,1,42,3124,0,3,396.90000000596046,413,H
2023-03-16T12:56:08Z,5ckvwhwy,serial-reaction-time,1,R,5,1,43,3124,0,2,348.7000000178814,132,H
2023-03-16T12:56:09Z,5ckvwhwy,serial-reaction-time,1,P,5,1,44,3124,0,1,391.7999999821186,321,H
2023-03-16T12:56:10Z,5ckvwhwy,serial-reaction-time,NA,R,5,1,45,3124,0,4,459.59999999403954,214,H
2023-03-16T12:56:10Z,5ckvwhwy,serial-reaction-time,1,R,5,0,45,3124,0,4,679.5,214,H
2023-03-16T12:56:11Z,5ckvwhwy,serial-reaction-time,1,P,5,1,46,3124,0,2,583.4000000059605,142,H
2023-03-16T12:56:11Z,5ckvwhwy,serial-reaction-time,1,R,5,1,47,3124,0,3,413.800000011921,423,H
2023-03-16T12:56:12Z,5ckvwhwy,serial-reaction-time,1,P,5,1,48,3124,0,4,308.39999997615814,234,H
2023-03-16T12:56:12Z,5ckvwhwy,serial-reaction-time,1,R,5,1,49,3124,0,4,384.5,344,L
2023-03-16T12:56:13Z,5ckvwhwy,serial-reaction-time,1,P,5,1,50,3124,0,3,590.6999999880791,443,H
2023-03-16T12:56:13Z,5ckvwhwy,serial-reaction-time,1,R,5,1,51,3124,0,4,529.5,434,T
2023-03-16T12:56:14Z,5ckvwhwy,serial-reaction-time,1,P,5,1,52,3124,0,1,502,341,H
2023-03-16T12:56:15Z,5ckvwhwy,serial-reaction-time,1,R,5,1,53,3124,0,4,443.89999997615814,414,T
2023-03-16T12:56:15Z,5ckvwhwy,serial-reaction-time,1,P,5,1,54,3124,0,2,619.1000000238419,142,H
2023-03-16T12:56:17Z,5ckvwhwy,serial-reaction-time,1,R,5,1,55,3124,0,1,858.8000000119209,421,L
2023-03-16T12:56:17Z,5ckvwhwy,serial-reaction-time,1,P,5,1,56,3124,0,4,561.6000000238419,214,H
2023-03-16T12:56:18Z,5ckvwhwy,serial-reaction-time,1,R,5,1,57,3124,0,4,357.5,144,L
2023-03-16T12:56:18Z,5ckvwhwy,serial-reaction-time,1,P,5,1,58,3124,0,3,425.5,443,H
2023-03-16T12:56:19Z,5ckvwhwy,serial-reaction-time,1,R,5,1,59,3124,0,3,322.7000000178814,433,H
2023-03-16T12:56:19Z,5ckvwhwy,serial-reaction-time,1,P,5,1,60,3124,0,1,487.199999988079,331,H
2023-03-16T12:56:20Z,5ckvwhwy,serial-reaction-time,1,R,5,1,61,3124,0,4,542.7999999821186,314,L
2023-03-16T12:56:21Z,5ckvwhwy,serial-reaction-time,1,P,5,1,62,3124,0,2,499.39999997615814,142,H
2023-03-16T12:56:21Z,5ckvwhwy,serial-reaction-time,1,R,5,1,63,3124,0,4,598.5999999940395,424,T
2023-03-16T12:56:22Z,5ckvwhwy,serial-reaction-time,1,P,5,1,64,3124,0,4,393.90000000596046,244,H
2023-03-16T12:56:23Z,5ckvwhwy,serial-reaction-time,1,R,5,1,65,3124,0,3,470.300000011921,443,H
2023-03-16T12:56:23Z,5ckvwhwy,serial-reaction-time,1,P,5,1,66,3124,0,3,259.7000000178814,433,H
2023-03-16T12:56:24Z,5ckvwhwy,serial-reaction-time,1,R,5,1,67,3124,0,4,414.5,334,L
2023-03-16T12:56:24Z,5ckvwhwy,serial-reaction-time,1,P,5,1,68,3124,0,1,533,341,H
2023-03-16T12:56:25Z,5ckvwhwy,serial-reaction-time,NA,R,5,1,69,3124,0,3,432.300000011921,413,H
2023-03-16T12:56:25Z,5ckvwhwy,serial-reaction-time,NA,R,5,0,69,3124,0,3,749.6000000238419,413,H
2023-03-16T12:56:26Z,5ckvwhwy,serial-reaction-time,1,R,5,0,69,3124,0,3,1074.2000000178814,413,H
2023-03-16T12:56:26Z,5ckvwhwy,serial-reaction-time,1,P,5,1,70,3124,0,2,616.5,132,H
2023-03-16T12:56:27Z,5ckvwhwy,serial-reaction-time,1,R,5,1,71,3124,0,4,351.89999997615814,324,L
2023-03-16T12:56:27Z,5ckvwhwy,serial-reaction-time,1,P,5,1,72,3124,0,4,353.30000001192093,244,H
2023-03-16T12:56:28Z,5ckvwhwy,serial-reaction-time,1,R,5,1,73,3124,0,1,419.300000011921,441,L
2023-03-16T12:56:28Z,5ckvwhwy,serial-reaction-time,1,P,5,1,74,3124,0,3,383.699999988079,413,H
2023-03-16T12:56:29Z,5ckvwhwy,serial-reaction-time,1,R,5,1,75,3124,0,3,435.5,133,L
2023-03-16T12:56:30Z,5ckvwhwy,serial-reaction-time,1,P,5,1,76,3124,0,1,526.3000000119209,331,H
2023-03-16T12:56:30Z,5ckvwhwy,serial-reaction-time,1,R,5,1,77,3124,0,4,366.800000011921,314,L
2023-03-16T12:56:31Z,5ckvwhwy,serial-reaction-time,1,P,5,1,78,3124,0,2,910.600000023842,142,H
2023-03-16T12:56:32Z,5ckvwhwy,serial-reaction-time,1,R,5,1,79,3124,0,2,403,422,L
2023-03-16T12:56:33Z,5ckvwhwy,serial-reaction-time,1,P,5,1,80,3124,0,4,451.90000000596046,224,H
2023-03-16T12:56:38Z,5ckvwhwy,html-keyboard-response,NA,NA,NA,NA,NA,NA,NA,NA,NA,NA,NA
2023-03-16T12:56:38Z,5ckvwhwy,html-keyboard-response,NA,NA,NA,NA,NA,NA,NA,NA,NA,NA,NA
2023-03-16T12:56:40Z,5ckvwhwy,serial-reaction-time,1,R,6,1,1,3124,0,1,577,1,X
2023-03-16T12:56:41Z,5ckvwhwy,serial-reaction-time,1,P,6,1,2,3124,0,3,516.2000000178814,13,X
2023-03-16T12:56:41Z,5ckvwhwy,serial-reaction-time,1,R,6,1,3,3124,0,4,353.19999998807907,134,L
2023-03-16T12:56:42Z,5ckvwhwy,serial-reaction-time,1,P,6,1,4,3124,0,1,680.2000000178814,341,H
2023-03-16T12:56:42Z,5ckvwhwy,serial-reaction-time,1,R,6,1,5,3124,0,2,378,412,L
2023-03-16T12:56:43Z,5ckvwhwy,serial-reaction-time,1,P,6,1,6,3124,0,2,381.39999997615814,122,H
2023-03-16T12:56:44Z,5ckvwhwy,serial-reaction-time,1,R,6,1,7,3124,0,2,345.80000001192093,222,R
2023-03-16T12:56:44Z,5ckvwhwy,serial-reaction-time,1,P,6,1,8,3124,0,4,349.80000001192093,224,H
2023-03-16T12:56:45Z,5ckvwhwy,serial-reaction-time,NA,R,6,1,9,3124,0,1,354.2000000178814,241,L
2023-03-16T12:56:45Z,5ckvwhwy,serial-reaction-time,1,R,6,0,9,3124,0,1,629.0000000298023,241,L
2023-03-16T12:56:45Z,5ckvwhwy,serial-reaction-time,1,P,6,1,10,3124,0,3,424.5,413,H
2023-03-16T12:56:46Z,5ckvwhwy,serial-reaction-time,NA,R,6,1,11,3124,0,2,369.10000002384186,132,H
2023-03-16T12:56:46Z,5ckvwhwy,serial-reaction-time,1,R,6,0,11,3124,0,2,688.0000000298023,132,H
2023-03-16T12:56:47Z,5ckvwhwy,serial-reaction-time,1,P,6,1,12,3124,0,1,478.2999999821186,321,H
2023-03-16T12:56:47Z,5ckvwhwy,serial-reaction-time,1,R,6,1,13,3124,0,4,322.40000000596046,214,H
2023-03-16T12:56:48Z,5ckvwhwy,serial-reaction-time,1,P,6,1,14,3124,0,2,587.1999999880791,142,H
2023-03-16T12:56:49Z,5ckvwhwy,serial-reaction-time,1,R,6,1,15,3124,0,1,556.3000000119209,421,L
2023-03-16T12:56:49Z,5ckvwhwy,serial-reaction-time,1,P,6,1,16,3124,0,4,318.40000000596046,214,H
2023-03-16T12:56:50Z,5ckvwhwy,serial-reaction-time,1,R,6,1,17,3124,0,2,558.8000000119209,142,H
2023-03-16T12:56:51Z,5ckvwhwy,serial-reaction-time,NA,P,6,1,18,3124,0,3,353.40000000596046,423,H
2023-03-16T12:56:51Z,5ckvwhwy,serial-reaction-time,NA,P,6,0,18,3124,0,3,671,423,H
2023-03-16T12:56:51Z,5ckvwhwy,serial-reaction-time,1,P,6,0,18,3124,0,3,933.1999999880792,423,H
2023-03-16T12:56:52Z,5ckvwhwy,serial-reaction-time,1,R,6,1,19,3124,0,4,440.5,234,H
2023-03-16T12:56:52Z,5ckvwhwy,serial-reaction-time,1,P,6,1,20,3124,0,1,503.5,341,H
2023-03-16T12:56:53Z,5ckvwhwy,serial-reaction-time,1,R,6,1,21,3124,0,2,475.2999999821186,412,L
2023-03-16T12:56:54Z,5ckvwhwy,serial-reaction-time,1,P,6,1,22,3124,0,2,369.699999988079,122,H
2023-03-16T12:56:54Z,5ckvwhwy,serial-reaction-time,NA,R,6,1,23,3124,0,3,380.699999988079,223,L
2023-03-16T12:56:54Z,5ckvwhwy,serial-reaction-time,1,R,6,0,23,3124,0,3,643,223,L
2023-03-16T12:56:55Z,5ckvwhwy,serial-reaction-time,1,P,6,1,24,3124,0,4,361.59999999403954,234,H
2023-03-16T12:56:56Z,5ckvwhwy,serial-reaction-time,1,R,6,1,25,3124,0,2,670,342,L
2023-03-16T12:56:57Z,5ckvwhwy,serial-reaction-time,1,P,6,1,26,3124,0,3,546.3000000119209,423,H
2023-03-16T12:56:57Z,5ckvwhwy,serial-reaction-time,1,R,6,1,27,3124,0,4,410.800000011921,234,H
2023-03-16T12:56:58Z,5ckvwhwy,serial-reaction-time,1,P,6,1,28,3124,0,1,360.800000011921,341,H
2023-03-16T12:56:58Z,5ckvwhwy,serial-reaction-time,NA,R,6,1,29,3124,0,4,454,414,T
2023-03-16T12:56:59Z,5ckvwhwy,serial-reaction-time,1,R,6,0,29,3124,0,4,755.4000000059605,414,T
2023-03-16T12:56:59Z,5ckvwhwy,serial-reaction-time,1,P,6,1,30,3124,0,2,673.4000000059605,142,H
2023-03-16T12:57:00Z,5ckvwhwy,serial-reaction-time,1,R,6,1,31,3124,0,2,373.5,422,L
2023-03-16T12:57:00Z,5ckvwhwy,serial-reaction-time,1,P,6,1,32,3124,0,4,377.59999999403954,224,H
2023-03-16T12:57:01Z,5ckvwhwy,serial-reaction-time,1,R,6,1,33,3124,0,2,409.89999997615814,242,T
2023-03-16T12:57:02Z,5ckvwhwy,serial-reaction-time,NA,P,6,1,34,3124,0,3,456,423,H
2023-03-16T12:57:02Z,5ckvwhwy,serial-reaction-time,1,P,6,0,34,3124,0,3,708.9000000059605,423,H
2023-03-16T12:57:02Z,5ckvwhwy,serial-reaction-time,1,R,6,1,35,3124,0,3,341.2999999821186,233,L
2023-03-16T12:57:03Z,5ckvwhwy,serial-reaction-time,1,P,6,1,36,3124,0,1,655,331,H
2023-03-16T12:57:04Z,5ckvwhwy,serial-reaction-time,1,R,6,1,37,3124,0,2,389.699999988079,312,L
2023-03-16T12:57:04Z,5ckvwhwy,serial-reaction-time,1,P,6,1,38,3124,0,2,344,122,H
2023-03-16T12:57:05Z,5ckvwhwy,serial-reaction-time,1,R,6,1,39,3124,0,2,375.10000002384186,222,R
2023-03-16T12:57:05Z,5ckvwhwy,serial-reaction-time,1,P,6,1,40,3124,0,4,398.59999999403954,224,H
2023-03-16T12:57:06Z,5ckvwhwy,serial-reaction-time,1,R,6,1,41,3124,0,3,554.1999999880791,243,L
2023-03-16T12:57:07Z,5ckvwhwy,serial-reaction-time,NA,P,6,1,42,3124,0,3,302.80000001192093,433,H
2023-03-16T12:57:07Z,5ckvwhwy,serial-reaction-time,1,P,6,0,42,3124,0,3,588.3000000119209,433,H
2023-03-16T12:57:07Z,5ckvwhwy,serial-reaction-time,1,R,6,1,43,3124,0,3,368.40000000596046,333,R
2023-03-16T12:57:08Z,5ckvwhwy,serial-reaction-time,1,P,6,1,44,3124,0,1,522.3000000119209,331,H
2023-03-16T12:57:09Z,5ckvwhwy,serial-reaction-time,1,R,6,1,45,3124,0,1,318.09999999403954,311,H
2023-03-16T12:57:09Z,5ckvwhwy,serial-reaction-time,1,P,6,1,46,3124,0,2,541.1999999880791,112,H
2023-03-16T12:57:10Z,5ckvwhwy,serial-reaction-time,1,R,6,1,47,3124,0,1,588.9000000059605,121,T
2023-03-16T12:57:11Z,5ckvwhwy,serial-reaction-time,1,P,6,1,48,3124,0,4,486.90000000596046,214,H
2023-03-16T12:57:12Z,5ckvwhwy,serial-reaction-time,1,R,6,1,49,3124,0,2,720.4000000059605,142,H
2023-03-16T12:57:12Z,5ckvwhwy,serial-reaction-time,1,P,6,1,50,3124,0,3,709.3000000119209,423,H
2023-03-16T12:57:13Z,5ckvwhwy,serial-reaction-time,1,R,6,1,51,3124,0,4,408.300000011921,234,H
2023-03-16T12:57:14Z,5ckvwhwy,serial-reaction-time,NA,P,6,1,52,3124,0,1,372,341,H
2023-03-16T12:57:14Z,5ckvwhwy,serial-reaction-time,1,P,6,0,52,3124,0,1,717.6999999880791,341,H
2023-03-16T12:57:14Z,5ckvwhwy,serial-reaction-time,1,R,6,1,53,3124,0,4,429.7000000178814,414,T
2023-03-16T12:57:15Z,5ckvwhwy,serial-reaction-time,1,P,6,1,54,3124,0,2,611.0999999940395,142,H
2023-03-16T12:57:16Z,5ckvwhwy,serial-reaction-time,1,R,6,1,55,3124,0,3,393,423,H
2023-03-16T12:57:16Z,5ckvwhwy,serial-reaction-time,1,P,6,1,56,3124,0,4,357,234,H
2023-03-16T12:57:17Z,5ckvwhwy,serial-reaction-time,1,R,6,1,57,3124,0,4,590.3999999761581,344,L
2023-03-16T12:57:18Z,5ckvwhwy,serial-reaction-time,1,P,6,1,58,3124,0,3,629.7999999821186,443,H
2023-03-16T12:57:19Z,5ckvwhwy,serial-reaction-time,1,R,6,1,59,3124,0,1,548.5,431,L
2023-03-16T12:57:19Z,5ckvwhwy,serial-reaction-time,1,P,6,1,60,3124,0,1,329.2000000178814,311,H
2023-03-16T12:57:20Z,5ckvwhwy,serial-reaction-time,1,R,6,1,61,3124,0,3,550.5,113,L
2023-03-16T12:57:20Z,5ckvwhwy,serial-reaction-time,1,P,6,1,62,3124,0,2,468.5,132,H
2023-03-16T12:57:21Z,5ckvwhwy,serial-reaction-time,1,R,6,1,63,3124,0,1,535,321,H
2023-03-16T12:57:22Z,5ckvwhwy,serial-reaction-time,1,P,6,1,64,3124,0,4,363.7999999821186,214,H
2023-03-16T12:57:22Z,5ckvwhwy,serial-reaction-time,1,R,6,1,65,3124,0,4,370.2999999821186,144,L
2023-03-16T12:57:23Z,5ckvwhwy,serial-reaction-time,1,P,6,1,66,3124,0,3,456.59999999403954,443,H
2023-03-16T12:57:23Z,5ckvwhwy,serial-reaction-time,NA,R,6,1,67,3124,0,1,252.7999999821186,431,L
2023-03-16T12:57:24Z,5ckvwhwy,serial-reaction-time,1,R,6,0,67,3124,0,1,621.6999999582767,431,L
2023-03-16T12:57:24Z,5ckvwhwy,serial-reaction-time,1,P,6,1,68,3124,0,1,322.2000000178814,311,H
2023-03-16T12:57:25Z,5ckvwhwy,serial-reaction-time,1,R,6,1,69,3124,0,3,542.5,113,L
2023-03-16T12:57:25Z,5ckvwhwy,serial-reaction-time,1,P,6,1,70,3124,0,2,522.0999999940395,132,H
2023-03-16T12:57:26Z,5ckvwhwy,serial-reaction-time,1,R,6,1,71,3124,0,2,384.199999988079,322,L
2023-03-16T12:57:26Z,5ckvwhwy,serial-reaction-time,1,P,6,1,72,3124,0,4,393.199999988079,224,H
2023-03-16T12:57:27Z,5ckvwhwy,serial-reaction-time,NA,R,6,1,73,3124,0,1,437.7000000178814,241,L
2023-03-16T12:57:28Z,5ckvwhwy,serial-reaction-time,1,R,6,0,73,3124,0,1,862.5999999940395,241,L
2023-03-16T12:57:28Z,5ckvwhwy,serial-reaction-time,1,P,6,1,74,3124,0,3,615.2999999821186,413,H
2023-03-16T12:57:29Z,5ckvwhwy,serial-reaction-time,1,R,6,1,75,3124,0,3,350.40000000596046,133,L
2023-03-16T12:57:29Z,5ckvwhwy,serial-reaction-time,1,P,6,1,76,3124,0,1,479.300000011921,331,H
2023-03-16T12:57:30Z,5ckvwhwy,serial-reaction-time,1,R,6,1,77,3124,0,1,331.19999998807907,311,H
2023-03-16T12:57:31Z,5ckvwhwy,serial-reaction-time,1,P,6,1,78,3124,0,2,539.9000000059605,112,H
2023-03-16T12:57:31Z,5ckvwhwy,serial-reaction-time,1,R,6,1,79,3124,0,3,651.8000000119209,123,L
2023-03-16T12:57:32Z,5ckvwhwy,serial-reaction-time,1,P,6,1,80,3124,0,4,456.09999999403954,234,H
2023-03-16T12:57:37Z,5ckvwhwy,html-keyboard-response,NA,NA,NA,NA,NA,NA,NA,NA,NA,NA,NA
2023-03-16T12:57:41Z,5ckvwhwy,html-keyboard-response,NA,NA,NA,NA,NA,NA,NA,NA,NA,NA,NA
2023-03-16T12:57:42Z,5ckvwhwy,serial-reaction-time,1,R,7,1,1,3124,0,2,617.7000000178814,2,X
2023-03-16T12:57:43Z,5ckvwhwy,serial-reaction-time,1,P,7,1,2,3124,0,3,393.40000000596046,23,X
2023-03-16T12:57:43Z,5ckvwhwy,serial-reaction-time,1,R,7,1,3,3124,0,3,318.19999998807907,233,L
2023-03-16T12:57:44Z,5ckvwhwy,serial-reaction-time,1,P,7,1,4,3124,0,1,586.3000000119209,331,H
2023-03-16T12:57:44Z,5ckvwhwy,serial-reaction-time,1,R,7,1,5,3124,0,1,288.30000001192093,311,H
2023-03-16T12:57:45Z,5ckvwhwy,serial-reaction-time,1,P,7,1,6,3124,0,2,481.90000000596046,112,H
2023-03-16T12:57:46Z,5ckvwhwy,serial-reaction-time,1,R,7,1,7,3124,0,2,680.2999999821186,122,H
2023-03-16T12:57:47Z,5ckvwhwy,serial-reaction-time,1,P,7,1,8,3124,0,4,488.5,224,H
2023-03-16T12:57:47Z,5ckvwhwy,serial-reaction-time,1,R,7,1,9,3124,0,1,637.5,241,L
2023-03-16T12:57:48Z,5ckvwhwy,serial-reaction-time,1,P,7,1,10,3124,0,3,462.5,413,H
2023-03-16T12:57:49Z,5ckvwhwy,serial-reaction-time,1,R,7,1,11,3124,0,1,477.40000000596046,131,T
2023-03-16T12:57:49Z,5ckvwhwy,serial-reaction-time,1,P,7,1,12,3124,0,1,326.60000002384186,311,H
2023-03-16T12:57:50Z,5ckvwhwy,serial-reaction-time,1,R,7,1,13,3124,0,2,783.2999999821186,112,H
2023-03-16T12:57:51Z,5ckvwhwy,serial-reaction-time,1,P,7,1,14,3124,0,2,338.10000002384186,122,H
2023-03-16T12:57:51Z,5ckvwhwy,serial-reaction-time,1,R,7,1,15,3124,0,2,343.59999999403954,222,R
2023-03-16T12:57:52Z,5ckvwhwy,serial-reaction-time,1,P,7,1,16,3124,0,4,353.7000000178814,224,H
2023-03-16T12:57:52Z,5ckvwhwy,serial-reaction-time,1,R,7,1,17,3124,0,2,618.7000000178814,242,T
2023-03-16T12:57:53Z,5ckvwhwy,serial-reaction-time,1,P,7,1,18,3124,0,3,441.59999999403954,423,H
2023-03-16T12:57:53Z,5ckvwhwy,serial-reaction-time,1,R,7,1,19,3124,0,4,403.90000000596046,234,H
2023-03-16T12:57:54Z,5ckvwhwy,serial-reaction-time,NA,P,7,1,20,3124,0,1,325.5,341,H
2023-03-16T12:57:54Z,5ckvwhwy,serial-reaction-time,1,P,7,0,20,3124,0,1,638.6000000238419,341,H
2023-03-16T12:57:55Z,5ckvwhwy,serial-reaction-time,1,R,7,1,21,3124,0,4,405,414,T
2023-03-16T12:57:56Z,5ckvwhwy,serial-reaction-time,1,P,7,1,22,3124,0,2,602.7999999821186,142,H
2023-03-16T12:57:56Z,5ckvwhwy,serial-reaction-time,NA,R,7,1,23,3124,0,1,489.2999999821186,421,L
2023-03-16T12:57:57Z,5ckvwhwy,serial-reaction-time,1,R,7,0,23,3124,0,1,855.2999999821186,421,L
2023-03-16T12:57:57Z,5ckvwhwy,serial-reaction-time,NA,P,7,1,24,3124,0,4,450.699999988079,214,H
2023-03-16T12:57:58Z,5ckvwhwy,serial-reaction-time,1,P,7,0,24,3124,0,4,657.9999999701977,214,H
2023-03-16T12:57:58Z,5ckvwhwy,serial-reaction-time,1,R,7,1,25,3124,0,1,681.0999999940395,141,T
2023-03-16T12:57:59Z,5ckvwhwy,serial-reaction-time,1,P,7,1,26,3124,0,3,692.3999999761581,413,H
2023-03-16T12:58:00Z,5ckvwhwy,serial-reaction-time,1,R,7,1,27,3124,0,1,515.9000000059605,131,T
2023-03-16T12:58:00Z,5ckvwhwy,serial-reaction-time,1,P,7,1,28,3124,0,1,334.19999998807907,311,H
2023-03-16T12:58:01Z,5ckvwhwy,serial-reaction-time,1,R,7,1,29,3124,0,2,686.4000000059605,112,H
2023-03-16T12:58:02Z,5ckvwhwy,serial-reaction-time,1,P,7,1,30,3124,0,2,353.90000000596046,122,H
2023-03-16T12:58:02Z,5ckvwhwy,serial-reaction-time,1,R,7,1,31,3124,0,2,352.90000000596046,222,R
2023-03-16T12:58:03Z,5ckvwhwy,serial-reaction-time,1,P,7,1,32,3124,0,4,465.800000011921,224,H
2023-03-16T12:58:03Z,5ckvwhwy,serial-reaction-time,1,R,7,1,33,3124,0,3,411.59999999403954,243,L
2023-03-16T12:58:04Z,5ckvwhwy,serial-reaction-time,1,P,7,1,34,3124,0,3,319.59999999403954,433,H
2023-03-16T12:58:04Z,5ckvwhwy,serial-reaction-time,1,R,7,1,35,3124,0,3,339.59999999403954,333,R
2023-03-16T12:58:05Z,5ckvwhwy,serial-reaction-time,1,P,7,1,36,3124,0,1,530,331,H
2023-03-16T12:58:06Z,5ckvwhwy,serial-reaction-time,1,R,7,1,37,3124,0,1,303.69999998807907,311,H
2023-03-16T12:58:06Z,5ckvwhwy,serial-reaction-time,1,P,7,1,38,3124,0,2,598.7000000178814,112,H
2023-03-16T12:58:07Z,5ckvwhwy,serial-reaction-time,NA,R,7,1,39,3124,0,4,231.0999999940395,124,L
2023-03-16T12:58:07Z,5ckvwhwy,serial-reaction-time,1,R,7,0,39,3124,0,4,628.6999999880791,124,L
2023-03-16T12:58:08Z,5ckvwhwy,serial-reaction-time,1,P,7,1,40,3124,0,4,321.19999998807907,244,H
2023-03-16T12:58:08Z,5ckvwhwy,serial-reaction-time,1,R,7,1,41,3124,0,1,413.199999988079,441,L
2023-03-16T12:58:09Z,5ckvwhwy,serial-reaction-time,1,P,7,1,42,3124,0,3,654.0999999940395,413,H
2023-03-16T12:58:10Z,5ckvwhwy,serial-reaction-time,1,R,7,1,43,3124,0,3,380.2000000178814,133,L
2023-03-16T12:58:10Z,5ckvwhwy,serial-reaction-time,1,P,7,1,44,3124,0,1,440.09999999403954,331,H
2023-03-16T12:58:11Z,5ckvwhwy,serial-reaction-time,1,R,7,1,45,3124,0,3,452.7999999821186,313,T
2023-03-16T12:58:11Z,5ckvwhwy,serial-reaction-time,NA,P,7,1,46,3124,0,2,337.2999999821186,132,H
2023-03-16T12:58:12Z,5ckvwhwy,serial-reaction-time,1,P,7,0,46,3124,0,2,746.4999999701977,132,H
2023-03-16T12:58:12Z,5ckvwhwy,serial-reaction-time,1,R,7,1,47,3124,0,4,392.7999999821186,324,L
2023-03-16T12:58:13Z,5ckvwhwy,serial-reaction-time,1,P,7,1,48,3124,0,4,363.09999999403954,244,H
2023-03-16T12:58:13Z,5ckvwhwy,serial-reaction-time,1,R,7,1,49,3124,0,2,525.3000000119209,442,L
2023-03-16T12:58:14Z,5ckvwhwy,serial-reaction-time,1,P,7,1,50,3124,0,3,715.2999999821186,423,H
2023-03-16T12:58:15Z,5ckvwhwy,serial-reaction-time,1,R,7,1,51,3124,0,2,638.7999999821186,232,T
2023-03-16T12:58:16Z,5ckvwhwy,serial-reaction-time,1,P,7,1,52,3124,0,1,590.8999999761581,321,H
2023-03-16T12:58:16Z,5ckvwhwy,serial-reaction-time,1,R,7,1,53,3124,0,1,366.300000011921,211,L
2023-03-16T12:58:17Z,5ckvwhwy,serial-reaction-time,1,P,7,1,54,3124,0,2,599.5,112,H
2023-03-16T12:58:18Z,5ckvwhwy,serial-reaction-time,1,R,7,1,55,3124,0,1,594.5,121,T
2023-03-16T12:58:19Z,5ckvwhwy,serial-reaction-time,1,P,7,1,56,3124,0,4,478.199999988079,214,H
2023-03-16T12:58:19Z,5ckvwhwy,serial-reaction-time,1,R,7,1,57,3124,0,4,353.09999999403954,144,L
2023-03-16T12:58:20Z,5ckvwhwy,serial-reaction-time,1,P,7,1,58,3124,0,3,436.699999988079,443,H
2023-03-16T12:58:20Z,5ckvwhwy,serial-reaction-time,1,R,7,1,59,3124,0,2,561.4000000059605,432,L
2023-03-16T12:58:21Z,5ckvwhwy,serial-reaction-time,1,P,7,1,60,3124,0,1,372.09999999403954,321,H
2023-03-16T12:58:21Z,5ckvwhwy,serial-reaction-time,1,R,7,1,61,3124,0,4,420,214,H
2023-03-16T12:58:23Z,5ckvwhwy,serial-reaction-time,1,P,7,1,62,3124,0,2,870.5999999940395,142,H
2023-03-16T12:58:23Z,5ckvwhwy,serial-reaction-time,1,R,7,1,63,3124,0,1,337.59999999403954,421,L
2023-03-16T12:58:24Z,5ckvwhwy,serial-reaction-time,1,P,7,1,64,3124,0,4,408.59999999403954,214,H
2023-03-16T12:58:24Z,5ckvwhwy,serial-reaction-time,1,R,7,1,65,3124,0,1,553.8999999761581,141,T
2023-03-16T12:58:25Z,5ckvwhwy,serial-reaction-time,1,P,7,1,66,3124,0,3,537.1999999880791,413,H
2023-03-16T12:58:26Z,5ckvwhwy,serial-reaction-time,1,R,7,1,67,3124,0,1,536.5,131,T
2023-03-16T12:58:26Z,5ckvwhwy,serial-reaction-time,1,P,7,1,68,3124,0,1,391,311,H
2023-03-16T12:58:27Z,5ckvwhwy,serial-reaction-time,1,R,7,1,69,3124,0,2,546.5,112,H
2023-03-16T12:58:27Z,5ckvwhwy,serial-reaction-time,1,P,7,1,70,3124,0,2,380.90000000596046,122,H
2023-03-16T12:58:28Z,5ckvwhwy,serial-reaction-time,1,R,7,1,71,3124,0,3,480.800000011921,223,L
2023-03-16T12:58:29Z,5ckvwhwy,serial-reaction-time,1,P,7,1,72,3124,0,4,402.5,234,H
2023-03-16T12:58:29Z,5ckvwhwy,serial-reaction-time,1,R,7,1,73,3124,0,1,547.7000000178814,341,H
2023-03-16T12:58:30Z,5ckvwhwy,serial-reaction-time,1,P,7,1,74,3124,0,3,577.1999999880791,413,H
2023-03-16T12:58:31Z,5ckvwhwy,serial-reaction-time,1,R,7,1,75,3124,0,2,608.7000000178814,132,H
2023-03-16T12:58:31Z,5ckvwhwy,serial-reaction-time,1,P,7,1,76,3124,0,1,328.80000001192093,321,H
2023-03-16T12:58:32Z,5ckvwhwy,serial-reaction-time,1,R,7,1,77,3124,0,3,610.6999999880791,213,L
2023-03-16T12:58:33Z,5ckvwhwy,serial-reaction-time,1,P,7,1,78,3124,0,2,742.5999999940395,132,H
2023-03-16T12:58:34Z,5ckvwhwy,serial-reaction-time,1,R,7,1,79,3124,0,2,500.5,322,L
2023-03-16T12:58:34Z,5ckvwhwy,serial-reaction-time,1,P,7,1,80,3124,0,4,590.2999999821186,224,H
2023-03-16T12:58:39Z,5ckvwhwy,html-keyboard-response,NA,NA,NA,NA,NA,NA,NA,NA,NA,NA,NA
2023-03-16T12:58:40Z,5ckvwhwy,html-keyboard-response,NA,NA,NA,NA,NA,NA,NA,NA,NA,NA,NA
2023-03-16T12:58:42Z,5ckvwhwy,serial-reaction-time,1,R,8,1,1,3124,0,3,562.4000000059605,3,X
2023-03-16T12:58:42Z,5ckvwhwy,serial-reaction-time,1,P,8,1,2,3124,0,3,338.5,33,X
2023-03-16T12:58:43Z,5ckvwhwy,serial-reaction-time,1,R,8,1,3,3124,0,2,397.59999999403954,332,L
2023-03-16T12:58:44Z,5ckvwhwy,serial-reaction-time,1,P,8,1,4,3124,0,1,408,321,H
2023-03-16T12:58:44Z,5ckvwhwy,serial-reaction-time,1,R,8,1,5,3124,0,2,389.800000011921,212,T
2023-03-16T12:58:45Z,5ckvwhwy,serial-reaction-time,1,P,8,1,6,3124,0,2,372.09999999403954,122,H
2023-03-16T12:58:45Z,5ckvwhwy,serial-reaction-time,1,R,8,1,7,3124,0,3,503.40000000596046,223,L
2023-03-16T12:58:46Z,5ckvwhwy,serial-reaction-time,1,P,8,1,8,3124,0,4,419.09999999403954,234,H
2023-03-16T12:58:46Z,5ckvwhwy,serial-reaction-time,1,R,8,1,9,3124,0,4,375.2999999821186,344,L
2023-03-16T12:58:47Z,5ckvwhwy,serial-reaction-time,1,P,8,1,10,3124,0,3,509.7000000178814,443,H
2023-03-16T12:58:48Z,5ckvwhwy,serial-reaction-time,1,R,8,1,11,3124,0,3,329.90000000596046,433,H
2023-03-16T12:58:48Z,5ckvwhwy,serial-reaction-time,1,P,8,1,12,3124,0,1,546.5,331,H
2023-03-16T12:58:49Z,5ckvwhwy,serial-reaction-time,1,R,8,1,13,3124,0,2,459.199999988079,312,L
2023-03-16T12:58:50Z,5ckvwhwy,serial-reaction-time,1,P,8,1,14,3124,0,2,491.39999997615814,122,H
2023-03-16T12:58:50Z,5ckvwhwy,serial-reaction-time,1,R,8,1,15,3124,0,1,356.59999999403954,221,L
2023-03-16T12:58:51Z,5ckvwhwy,serial-reaction-time,NA,P,8,1,16,3124,0,4,377.90000000596046,214,H
2023-03-16T12:58:51Z,5ckvwhwy,serial-reaction-time,1,P,8,0,16,3124,0,4,645.8000000119209,214,H
2023-03-16T12:58:52Z,5ckvwhwy,serial-reaction-time,1,R,8,1,17,3124,0,1,492.699999988079,141,T
2023-03-16T12:58:52Z,5ckvwhwy,serial-reaction-time,1,P,8,1,18,3124,0,3,593.5,413,H
2023-03-16T12:58:53Z,5ckvwhwy,serial-reaction-time,1,R,8,1,19,3124,0,2,640.7000000178814,132,H
2023-03-16T12:58:54Z,5ckvwhwy,serial-reaction-time,1,P,8,1,20,3124,0,1,407.800000011921,321,H
2023-03-16T12:58:54Z,5ckvwhwy,serial-reaction-time,1,R,8,1,21,3124,0,2,568.3000000119209,212,T
2023-03-16T12:58:55Z,5ckvwhwy,serial-reaction-time,1,P,8,1,22,3124,0,2,575.1999999880791,122,H
2023-03-16T12:58:56Z,5ckvwhwy,serial-reaction-time,1,R,8,1,23,3124,0,4,560.0999999940395,224,H
2023-03-16T12:58:56Z,5ckvwhwy,serial-reaction-time,1,P,8,1,24,3124,0,4,328.5,244,H
2023-03-16T12:58:57Z,5ckvwhwy,serial-reaction-time,1,R,8,1,25,3124,0,2,629.6999999880791,442,L
2023-03-16T12:58:58Z,5ckvwhwy,serial-reaction-time,1,P,8,1,26,3124,0,3,523.5,423,H
2023-03-16T12:58:58Z,5ckvwhwy,serial-reaction-time,1,R,8,1,27,3124,0,1,529.2999999821186,231,L
2023-03-16T12:58:59Z,5ckvwhwy,serial-reaction-time,1,P,8,1,28,3124,0,1,397.59999999403954,311,H
2023-03-16T12:59:00Z,5ckvwhwy,serial-reaction-time,1,R,8,1,29,3124,0,2,432,112,H
2023-03-16T12:59:00Z,5ckvwhwy,serial-reaction-time,1,P,8,1,30,3124,0,2,362.7000000178814,122,H
2023-03-16T12:59:01Z,5ckvwhwy,serial-reaction-time,1,R,8,1,31,3124,0,1,476.699999988079,221,L
2023-03-16T12:59:01Z,5ckvwhwy,serial-reaction-time,1,P,8,1,32,3124,0,4,536.7000000178814,214,H
2023-03-16T12:59:02Z,5ckvwhwy,serial-reaction-time,NA,R,8,1,33,3124,0,2,465.199999988079,142,H
2023-03-16T12:59:03Z,5ckvwhwy,serial-reaction-time,1,R,8,0,33,3124,0,2,1117.899999976158,142,H
2023-03-16T12:59:03Z,5ckvwhwy,serial-reaction-time,1,P,8,1,34,3124,0,3,395.800000011921,423,H
2023-03-16T12:59:04Z,5ckvwhwy,serial-reaction-time,1,R,8,1,35,3124,0,4,391.199999988079,234,H
2023-03-16T12:59:05Z,5ckvwhwy,serial-reaction-time,1,P,8,1,36,3124,0,1,572.2000000178814,341,H
2023-03-16T12:59:05Z,5ckvwhwy,serial-reaction-time,1,R,8,1,37,3124,0,3,575.9000000059605,413,H
2023-03-16T12:59:06Z,5ckvwhwy,serial-reaction-time,1,P,8,1,38,3124,0,2,537.8000000119209,132,H
2023-03-16T12:59:07Z,5ckvwhwy,serial-reaction-time,1,R,8,1,39,3124,0,2,498,322,L
2023-03-16T12:59:07Z,5ckvwhwy,serial-reaction-time,1,P,8,1,40,3124,0,4,381.2000000178814,224,H
2023-03-16T12:59:08Z,5ckvwhwy,serial-reaction-time,NA,R,8,1,41,3124,0,1,555.5,241,L
2023-03-16T12:59:08Z,5ckvwhwy,serial-reaction-time,1,R,8,0,41,3124,0,1,876.3000000119209,241,L
2023-03-16T12:59:09Z,5ckvwhwy,serial-reaction-time,1,P,8,1,42,3124,0,3,454.2000000178814,413,H
2023-03-16T12:59:10Z,5ckvwhwy,serial-reaction-time,1,R,8,1,43,3124,0,2,598.1999999880791,132,H
2023-03-16T12:59:10Z,5ckvwhwy,serial-reaction-time,1,P,8,1,44,3124,0,1,522.6999999880791,321,H
2023-03-16T12:59:11Z,5ckvwhwy,serial-reaction-time,1,R,8,1,45,3124,0,3,574.7999999821186,213,L
2023-03-16T12:59:12Z,5ckvwhwy,serial-reaction-time,1,P,8,1,46,3124,0,2,415.90000000596046,132,H
2023-03-16T12:59:12Z,5ckvwhwy,serial-reaction-time,1,R,8,1,47,3124,0,4,388.90000000596046,324,L
2023-03-16T12:59:13Z,5ckvwhwy,serial-reaction-time,1,P,8,1,48,3124,0,4,393.5,244,H
2023-03-16T12:59:13Z,5ckvwhwy,serial-reaction-time,1,R,8,1,49,3124,0,4,399,444,R
2023-03-16T12:59:14Z,5ckvwhwy,serial-reaction-time,1,P,8,1,50,3124,0,3,635.8000000119209,443,H
2023-03-16T12:59:15Z,5ckvwhwy,serial-reaction-time,1,R,8,1,51,3124,0,4,434.10000002384186,434,T
2023-03-16T12:59:15Z,5ckvwhwy,serial-reaction-time,1,P,8,1,52,3124,0,1,479.59999999403954,341,H
2023-03-16T12:59:16Z,5ckvwhwy,serial-reaction-time,1,R,8,1,53,3124,0,2,471,412,L
2023-03-16T12:59:16Z,5ckvwhwy,serial-reaction-time,1,P,8,1,54,3124,0,2,337.90000000596046,122,H
2023-03-16T12:59:17Z,5ckvwhwy,serial-reaction-time,1,R,8,1,55,3124,0,1,462.5,221,L
2023-03-16T12:59:18Z,5ckvwhwy,serial-reaction-time,NA,P,8,1,56,3124,0,4,559.9000000059605,214,H
2023-03-16T12:59:18Z,5ckvwhwy,serial-reaction-time,1,P,8,0,56,3124,0,4,840.6999999880791,214,H
2023-03-16T12:59:19Z,5ckvwhwy,serial-reaction-time,1,R,8,1,57,3124,0,3,513.7999999821186,143,L
2023-03-16T12:59:19Z,5ckvwhwy,serial-reaction-time,1,P,8,1,58,3124,0,3,316.30000001192093,433,H
2023-03-16T12:59:20Z,5ckvwhwy,serial-reaction-time,1,R,8,1,59,3124,0,4,425.699999988079,334,L
2023-03-16T12:59:21Z,5ckvwhwy,serial-reaction-time,1,P,8,1,60,3124,0,1,630.5,341,H
2023-03-16T12:59:21Z,5ckvwhwy,serial-reaction-time,1,R,8,1,61,3124,0,4,469.699999988079,414,T
2023-03-16T12:59:22Z,5ckvwhwy,serial-reaction-time,1,P,8,1,62,3124,0,2,527.4000000059605,142,H
2023-03-16T12:59:22Z,5ckvwhwy,serial-reaction-time,1,R,8,1,63,3124,0,1,524.1999999880791,421,L
2023-03-16T12:59:23Z,5ckvwhwy,serial-reaction-time,1,P,8,1,64,3124,0,4,608.5999999940395,214,H
2023-03-16T12:59:24Z,5ckvwhwy,serial-reaction-time,1,R,8,1,65,3124,0,4,369.40000000596046,144,L
2023-03-16T12:59:24Z,5ckvwhwy,serial-reaction-time,1,P,8,1,66,3124,0,3,453.90000000596046,443,H
2023-03-16T12:59:25Z,5ckvwhwy,serial-reaction-time,1,R,8,1,67,3124,0,3,321.69999998807907,433,H
2023-03-16T12:59:25Z,5ckvwhwy,serial-reaction-time,1,P,8,1,68,3124,0,1,405.90000000596046,331,H
2023-03-16T12:59:26Z,5ckvwhwy,serial-reaction-time,1,R,8,1,69,3124,0,2,546.3000000119209,312,L
2023-03-16T12:59:27Z,5ckvwhwy,serial-reaction-time,1,P,8,1,70,3124,0,2,404.09999999403954,122,H
2023-03-16T12:59:27Z,5ckvwhwy,serial-reaction-time,1,R,8,1,71,3124,0,4,485.40000000596046,224,H
2023-03-16T12:59:28Z,5ckvwhwy,serial-reaction-time,1,P,8,1,72,3124,0,4,413.90000000596046,244,H
2023-03-16T12:59:29Z,5ckvwhwy,serial-reaction-time,1,R,8,1,73,3124,0,1,505.09999999403954,441,L
2023-03-16T12:59:29Z,5ckvwhwy,serial-reaction-time,1,P,8,1,74,3124,0,3,481.2999999821186,413,H
2023-03-16T12:59:30Z,5ckvwhwy,serial-reaction-time,1,R,8,1,75,3124,0,2,604.6000000238419,132,H
2023-03-16T12:59:31Z,5ckvwhwy,serial-reaction-time,1,P,8,1,76,3124,0,1,422.7999999821186,321,H
2023-03-16T12:59:31Z,5ckvwhwy,serial-reaction-time,1,R,8,1,77,3124,0,1,387.5,211,L
2023-03-16T12:59:32Z,5ckvwhwy,serial-reaction-time,1,P,8,1,78,3124,0,2,678.3000000119209,112,H
2023-03-16T12:59:33Z,5ckvwhwy,serial-reaction-time,1,R,8,1,79,3124,0,4,389.800000011921,124,L
2023-03-16T12:59:33Z,5ckvwhwy,serial-reaction-time,1,P,8,1,80,3124,0,4,329.59999999403954,244,H
2023-03-16T12:59:38Z,5ckvwhwy,html-keyboard-response,NA,NA,NA,NA,NA,NA,NA,NA,NA,NA,NA
2023-03-16T12:59:39Z,5ckvwhwy,html-keyboard-response,NA,NA,NA,NA,NA,NA,NA,NA,NA,NA,NA
2023-03-16T12:59:41Z,5ckvwhwy,serial-reaction-time,1,R,9,1,1,3124,0,4,833.9000000059605,4,X
2023-03-16T12:59:41Z,5ckvwhwy,serial-reaction-time,NA,P,9,1,2,3124,0,3,329.90000000596046,43,X
2023-03-16T12:59:42Z,5ckvwhwy,serial-reaction-time,1,P,9,0,2,3124,0,3,626.2000000178814,43,X
2023-03-16T12:59:42Z,5ckvwhwy,serial-reaction-time,1,R,9,1,3,3124,0,4,319.69999998807907,434,T
2023-03-16T12:59:43Z,5ckvwhwy,serial-reaction-time,1,P,9,1,4,3124,0,1,546.7000000178814,341,H
2023-03-16T12:59:43Z,5ckvwhwy,serial-reaction-time,1,R,9,1,5,3124,0,1,306.30000001192093,411,L
2023-03-16T12:59:44Z,5ckvwhwy,serial-reaction-time,1,P,9,1,6,3124,0,2,375.59999999403954,112,H
2023-03-16T12:59:44Z,5ckvwhwy,serial-reaction-time,1,R,9,1,7,3124,0,2,319,122,H
2023-03-16T12:59:45Z,5ckvwhwy,serial-reaction-time,1,P,9,1,8,3124,0,4,547.9000000059605,224,H
2023-03-16T12:59:46Z,5ckvwhwy,serial-reaction-time,1,R,9,1,9,3124,0,3,345,243,L
2023-03-16T12:59:46Z,5ckvwhwy,serial-reaction-time,1,P,9,1,10,3124,0,3,349.60000002384186,433,H
2023-03-16T12:59:47Z,5ckvwhwy,serial-reaction-time,1,R,9,1,11,3124,0,3,442.199999988079,333,R
2023-03-16T12:59:47Z,5ckvwhwy,serial-reaction-time,1,P,9,1,12,3124,0,1,537.7999999821186,331,H
2023-03-16T12:59:48Z,5ckvwhwy,serial-reaction-time,1,R,9,1,13,3124,0,2,363.90000000596046,312,L
2023-03-16T12:59:49Z,5ckvwhwy,serial-reaction-time,1,P,9,1,14,3124,0,2,449.5,122,H
2023-03-16T12:59:49Z,5ckvwhwy,serial-reaction-time,1,R,9,1,15,3124,0,2,350.7999999821186,222,R
2023-03-16T12:59:50Z,5ckvwhwy,serial-reaction-time,1,P,9,1,16,3124,0,4,577.5,224,H
2023-03-16T12:59:50Z,5ckvwhwy,serial-reaction-time,1,R,9,1,17,3124,0,4,331.89999997615814,244,H
2023-03-16T12:59:51Z,5ckvwhwy,serial-reaction-time,1,P,9,1,18,3124,0,3,379.300000011921,443,H
2023-03-16T12:59:51Z,5ckvwhwy,serial-reaction-time,1,R,9,1,19,3124,0,3,292.5,433,H
2023-03-16T12:59:52Z,5ckvwhwy,serial-reaction-time,1,P,9,1,20,3124,0,1,442.2999999821186,331,H
2023-03-16T12:59:52Z,5ckvwhwy,serial-reaction-time,1,R,9,1,21,3124,0,1,305.89999997615814,311,H
2023-03-16T12:59:53Z,5ckvwhwy,serial-reaction-time,1,P,9,1,22,3124,0,2,327.7000000178814,112,H
2023-03-16T12:59:54Z,5ckvwhwy,serial-reaction-time,1,R,9,1,23,3124,0,3,572.2000000178814,123,L
2023-03-16T12:59:54Z,5ckvwhwy,serial-reaction-time,1,P,9,1,24,3124,0,4,372.39999997615814,234,H
2023-03-16T12:59:55Z,5ckvwhwy,serial-reaction-time,1,R,9,1,25,3124,0,3,321.59999999403954,343,T
2023-03-16T12:59:55Z,5ckvwhwy,serial-reaction-time,1,P,9,1,26,3124,0,3,371.699999988079,433,H
2023-03-16T12:59:56Z,5ckvwhwy,serial-reaction-time,1,R,9,1,27,3124,0,4,400.59999999403954,334,L
2023-03-16T12:59:56Z,5ckvwhwy,serial-reaction-time,1,P,9,1,28,3124,0,1,547.9000000059605,341,H
2023-03-16T12:59:57Z,5ckvwhwy,serial-reaction-time,NA,R,9,1,29,3124,0,4,381,414,T
2023-03-16T12:59:57Z,5ckvwhwy,serial-reaction-time,1,R,9,0,29,3124,0,4,654.5,414,T
2023-03-16T12:59:58Z,5ckvwhwy,serial-reaction-time,1,P,9,1,30,3124,0,2,573.9000000059605,142,H
2023-03-16T12:59:58Z,5ckvwhwy,serial-reaction-time,1,R,9,1,31,3124,0,2,371.7000000178814,422,L
2023-03-16T12:59:59Z,5ckvwhwy,serial-reaction-time,1,P,9,1,32,3124,0,4,523.5999999940395,224,H
2023-03-16T13:00:00Z,5ckvwhwy,serial-reaction-time,NA,R,9,1,33,3124,0,1,397,241,L
2023-03-16T13:00:00Z,5ckvwhwy,serial-reaction-time,1,R,9,0,33,3124,0,1,765.9000000059605,241,L
2023-03-16T13:00:01Z,5ckvwhwy,serial-reaction-time,1,P,9,1,34,3124,0,3,434.2999999821186,413,H
2023-03-16T13:00:01Z,5ckvwhwy,serial-reaction-time,1,R,9,1,35,3124,0,3,347.69999998807907,133,L
2023-03-16T13:00:02Z,5ckvwhwy,serial-reaction-time,1,P,9,1,36,3124,0,1,387.800000011921,331,H
2023-03-16T13:00:02Z,5ckvwhwy,serial-reaction-time,1,R,9,1,37,3124,0,1,330.89999997615814,311,H
2023-03-16T13:00:03Z,5ckvwhwy,serial-reaction-time,1,P,9,1,38,3124,0,2,403.89999997615814,112,H
2023-03-16T13:00:03Z,5ckvwhwy,serial-reaction-time,1,R,9,1,39,3124,0,2,346.90000000596046,122,H
2023-03-16T13:00:04Z,5ckvwhwy,serial-reaction-time,1,P,9,1,40,3124,0,4,371.90000000596046,224,H
2023-03-16T13:00:04Z,5ckvwhwy,serial-reaction-time,1,R,9,1,41,3124,0,3,496.7000000178814,243,L
2023-03-16T13:00:05Z,5ckvwhwy,serial-reaction-time,1,P,9,1,42,3124,0,3,418.59999999403954,433,H
2023-03-16T13:00:06Z,5ckvwhwy,serial-reaction-time,1,R,9,1,43,3124,0,1,491.300000011921,331,H
2023-03-16T13:00:06Z,5ckvwhwy,serial-reaction-time,1,P,9,1,44,3124,0,1,325.69999998807907,311,H
2023-03-16T13:00:07Z,5ckvwhwy,serial-reaction-time,1,R,9,1,45,3124,0,1,486.90000000596046,111,R
2023-03-16T13:00:07Z,5ckvwhwy,serial-reaction-time,1,P,9,1,46,3124,0,2,498.90000000596046,112,H
2023-03-16T13:00:08Z,5ckvwhwy,serial-reaction-time,1,R,9,1,47,3124,0,3,537.7000000178814,123,L
2023-03-16T13:00:09Z,5ckvwhwy,serial-reaction-time,1,P,9,1,48,3124,0,4,334.69999998807907,234,H
2023-03-16T13:00:09Z,5ckvwhwy,serial-reaction-time,1,R,9,1,49,3124,0,3,386.09999999403954,343,T
2023-03-16T13:00:10Z,5ckvwhwy,serial-reaction-time,1,P,9,1,50,3124,0,3,339.59999999403954,433,H
2023-03-16T13:00:10Z,5ckvwhwy,serial-reaction-time,1,R,9,1,51,3124,0,4,408.5,334,L
2023-03-16T13:00:11Z,5ckvwhwy,serial-reaction-time,1,P,9,1,52,3124,0,1,503,341,H
2023-03-16T13:00:11Z,5ckvwhwy,serial-reaction-time,1,R,9,1,53,3124,0,1,307.59999999403954,411,L
2023-03-16T13:00:12Z,5ckvwhwy,serial-reaction-time,1,P,9,1,54,3124,0,2,326.30000001192093,112,H
2023-03-16T13:00:12Z,5ckvwhwy,serial-reaction-time,1,R,9,1,55,3124,0,2,330.30000001192093,122,H
2023-03-16T13:00:13Z,5ckvwhwy,serial-reaction-time,1,P,9,1,56,3124,0,4,534.5999999940395,224,H
2023-03-16T13:00:14Z,5ckvwhwy,serial-reaction-time,1,R,9,1,57,3124,0,3,540.6000000238419,243,L
2023-03-16T13:00:14Z,5ckvwhwy,serial-reaction-time,1,P,9,1,58,3124,0,3,423.40000000596046,433,H
2023-03-16T13:00:15Z,5ckvwhwy,serial-reaction-time,1,R,9,1,59,3124,0,3,404.7000000178814,333,R
2023-03-16T13:00:15Z,5ckvwhwy,serial-reaction-time,1,P,9,1,60,3124,0,1,427.699999988079,331,H
2023-03-16T13:00:16Z,5ckvwhwy,serial-reaction-time,1,R,9,1,61,3124,0,1,307,311,H
2023-03-16T13:00:16Z,5ckvwhwy,serial-reaction-time,1,P,9,1,62,3124,0,2,374.40000000596046,112,H
2023-03-16T13:00:17Z,5ckvwhwy,serial-reaction-time,1,R,9,1,63,3124,0,2,322.40000000596046,122,H
2023-03-16T13:00:17Z,5ckvwhwy,serial-reaction-time,1,P,9,1,64,3124,0,4,353.69999998807907,224,H
2023-03-16T13:00:18Z,5ckvwhwy,serial-reaction-time,NA,R,9,1,65,3124,0,2,465.40000000596046,242,T
2023-03-16T13:00:18Z,5ckvwhwy,serial-reaction-time,NA,R,9,0,65,3124,0,2,824.9000000059605,242,T
2023-03-16T13:00:19Z,5ckvwhwy,serial-reaction-time,1,R,9,0,65,3124,0,2,1165.300000011921,242,T
2023-03-16T13:00:20Z,5ckvwhwy,serial-reaction-time,1,P,9,1,66,3124,0,3,691.1999999880791,423,H
2023-03-16T13:00:20Z,5ckvwhwy,serial-reaction-time,1,R,9,1,67,3124,0,3,340.30000001192093,233,L
2023-03-16T13:00:21Z,5ckvwhwy,serial-reaction-time,1,P,9,1,68,3124,0,1,524,331,H
2023-03-16T13:00:22Z,5ckvwhwy,serial-reaction-time,1,R,9,1,69,3124,0,2,658.3000000119209,312,L
2023-03-16T13:00:22Z,5ckvwhwy,serial-reaction-time,1,P,9,1,70,3124,0,2,334.7999999821186,122,H
2023-03-16T13:00:23Z,5ckvwhwy,serial-reaction-time,1,R,9,1,71,3124,0,2,379.5,222,R
2023-03-16T13:00:23Z,5ckvwhwy,serial-reaction-time,1,P,9,1,72,3124,0,4,368.300000011921,224,H
2023-03-16T13:00:24Z,5ckvwhwy,serial-reaction-time,1,R,9,1,73,3124,0,4,314,244,H
2023-03-16T13:00:24Z,5ckvwhwy,serial-reaction-time,1,P,9,1,74,3124,0,3,526.9000000059605,443,H
2023-03-16T13:00:25Z,5ckvwhwy,serial-reaction-time,1,R,9,1,75,3124,0,1,699.0999999940395,431,L
2023-03-16T13:00:26Z,5ckvwhwy,serial-reaction-time,1,P,9,1,76,3124,0,1,349.80000001192093,311,H
2023-03-16T13:00:26Z,5ckvwhwy,serial-reaction-time,1,R,9,1,77,3124,0,3,462.59999999403954,113,L
2023-03-16T13:00:27Z,5ckvwhwy,serial-reaction-time,1,P,9,1,78,3124,0,2,567.5,132,H
2023-03-16T13:00:28Z,5ckvwhwy,serial-reaction-time,1,R,9,1,79,3124,0,1,400.40000000596046,321,H
2023-03-16T13:00:28Z,5ckvwhwy,serial-reaction-time,1,P,9,1,80,3124,0,4,536.4000000059605,214,H
2023-03-16T13:00:33Z,5ckvwhwy,html-keyboard-response,NA,NA,NA,NA,NA,NA,NA,NA,NA,NA,NA
2023-03-16T13:00:34Z,5ckvwhwy,html-keyboard-response,NA,NA,NA,NA,NA,NA,NA,NA,NA,NA,NA
2023-03-16T13:00:36Z,5ckvwhwy,serial-reaction-time,1,R,10,1,1,3124,0,3,790.8999999761581,3,X
2023-03-16T13:00:37Z,5ckvwhwy,serial-reaction-time,1,P,10,1,2,3124,0,3,315,33,X
2023-03-16T13:00:37Z,5ckvwhwy,serial-reaction-time,1,R,10,1,3,3124,0,1,578.5999999940395,331,H
2023-03-16T13:00:38Z,5ckvwhwy,serial-reaction-time,1,P,10,1,4,3124,0,1,268.2999999821186,311,H
2023-03-16T13:00:38Z,5ckvwhwy,serial-reaction-time,1,R,10,1,5,3124,0,2,435,112,H
2023-03-16T13:00:39Z,5ckvwhwy,serial-reaction-time,1,P,10,1,6,3124,0,2,268,122,H
2023-03-16T13:00:39Z,5ckvwhwy,serial-reaction-time,1,R,10,1,7,3124,0,2,378.10000002384186,222,R
2023-03-16T13:00:40Z,5ckvwhwy,serial-reaction-time,1,P,10,1,8,3124,0,4,479.90000000596046,224,H
2023-03-16T13:00:40Z,5ckvwhwy,serial-reaction-time,NA,R,10,1,9,3124,0,1,212.69999998807907,241,L
2023-03-16T13:00:41Z,5ckvwhwy,serial-reaction-time,1,R,10,0,9,3124,0,1,615.1999999880791,241,L
2023-03-16T13:00:41Z,5ckvwhwy,serial-reaction-time,1,P,10,1,10,3124,0,3,490.39999997615814,413,H
2023-03-16T13:00:42Z,5ckvwhwy,serial-reaction-time,1,R,10,1,11,3124,0,3,336.5,133,L
2023-03-16T13:00:42Z,5ckvwhwy,serial-reaction-time,1,P,10,1,12,3124,0,1,393.2999999821186,331,H
2023-03-16T13:00:43Z,5ckvwhwy,serial-reaction-time,1,R,10,1,13,3124,0,1,352.59999999403954,311,H
2023-03-16T13:00:43Z,5ckvwhwy,serial-reaction-time,1,P,10,1,14,3124,0,2,389.60000002384186,112,H
2023-03-16T13:00:44Z,5ckvwhwy,serial-reaction-time,1,R,10,1,15,3124,0,2,348.2999999821186,122,H
2023-03-16T13:00:45Z,5ckvwhwy,serial-reaction-time,1,P,10,1,16,3124,0,4,376.10000002384186,224,H
2023-03-16T13:00:45Z,5ckvwhwy,serial-reaction-time,1,R,10,1,17,3124,0,4,325.2000000178814,244,H
2023-03-16T13:00:46Z,5ckvwhwy,serial-reaction-time,1,P,10,1,18,3124,0,3,509.199999988079,443,H
2023-03-16T13:00:46Z,5ckvwhwy,serial-reaction-time,1,R,10,1,19,3124,0,4,459.09999999403954,434,T
2023-03-16T13:00:47Z,5ckvwhwy,serial-reaction-time,1,P,10,1,20,3124,0,1,535.5999999940395,341,H
2023-03-16T13:00:48Z,5ckvwhwy,serial-reaction-time,1,R,10,1,21,3124,0,2,465.90000000596046,412,L
2023-03-16T13:00:48Z,5ckvwhwy,serial-reaction-time,1,P,10,1,22,3124,0,2,405.39999997615814,122,H
2023-03-16T13:00:49Z,5ckvwhwy,serial-reaction-time,1,R,10,1,23,3124,0,3,500.59999999403954,223,L
2023-03-16T13:00:49Z,5ckvwhwy,serial-reaction-time,NA,P,10,1,24,3124,0,4,252.7000000178814,234,H
2023-03-16T13:00:50Z,5ckvwhwy,serial-reaction-time,1,P,10,0,24,3124,0,4,561.7000000178814,234,H
2023-03-16T13:00:50Z,5ckvwhwy,serial-reaction-time,1,R,10,1,25,3124,0,3,340.69999998807907,343,T
2023-03-16T13:00:51Z,5ckvwhwy,serial-reaction-time,1,P,10,1,26,3124,0,3,371.09999999403954,433,H
2023-03-16T13:00:51Z,5ckvwhwy,serial-reaction-time,1,R,10,1,27,3124,0,4,365.7000000178814,334,L
2023-03-16T13:00:52Z,5ckvwhwy,serial-reaction-time,1,P,10,1,28,3124,0,1,524.9000000059605,341,H
2023-03-16T13:00:53Z,5ckvwhwy,serial-reaction-time,1,R,10,1,29,3124,0,3,679.6999999880791,413,H
2023-03-16T13:00:53Z,5ckvwhwy,serial-reaction-time,1,P,10,1,30,3124,0,2,558.2999999821186,132,H
2023-03-16T13:00:54Z,5ckvwhwy,serial-reaction-time,1,R,10,1,31,3124,0,2,383.199999988079,322,L
2023-03-16T13:00:54Z,5ckvwhwy,serial-reaction-time,1,P,10,1,32,3124,0,4,379.40000000596046,224,H
2023-03-16T13:00:55Z,5ckvwhwy,serial-reaction-time,NA,R,10,1,33,3124,0,1,426,241,L
2023-03-16T13:00:55Z,5ckvwhwy,serial-reaction-time,1,R,10,0,33,3124,0,1,743.5999999940395,241,L
2023-03-16T13:00:56Z,5ckvwhwy,serial-reaction-time,1,P,10,1,34,3124,0,3,635.8000000119209,413,H
2023-03-16T13:00:57Z,5ckvwhwy,serial-reaction-time,1,R,10,1,35,3124,0,4,459.5,134,L
2023-03-16T13:00:57Z,5ckvwhwy,serial-reaction-time,NA,P,10,1,36,3124,0,1,487.699999988079,341,H
2023-03-16T13:00:58Z,5ckvwhwy,serial-reaction-time,1,P,10,0,36,3124,0,1,729.2999999821186,341,H
2023-03-16T13:00:58Z,5ckvwhwy,serial-reaction-time,1,R,10,1,37,3124,0,4,470.90000000596046,414,T
2023-03-16T13:00:59Z,5ckvwhwy,serial-reaction-time,1,P,10,1,38,3124,0,2,548.5999999940395,142,H
2023-03-16T13:01:00Z,5ckvwhwy,serial-reaction-time,1,R,10,1,39,3124,0,1,631.1999999880791,421,L
2023-03-16T13:01:00Z,5ckvwhwy,serial-reaction-time,1,P,10,1,40,3124,0,4,404.40000000596046,214,H
2023-03-16T13:01:01Z,5ckvwhwy,serial-reaction-time,1,R,10,1,41,3124,0,1,498.59999999403954,141,T
2023-03-16T13:01:02Z,5ckvwhwy,serial-reaction-time,1,P,10,1,42,3124,0,3,836.8000000119209,413,H
2023-03-16T13:01:03Z,5ckvwhwy,serial-reaction-time,1,R,10,1,43,3124,0,4,389.90000000596046,134,L
2023-03-16T13:01:03Z,5ckvwhwy,serial-reaction-time,1,P,10,1,44,3124,0,1,671.6999999880791,341,H
2023-03-16T13:01:04Z,5ckvwhwy,serial-reaction-time,1,R,10,1,45,3124,0,4,583.0999999940395,414,T
2023-03-16T13:01:05Z,5ckvwhwy,serial-reaction-time,1,P,10,1,46,3124,0,2,488.59999999403954,142,H
2023-03-16T13:01:05Z,5ckvwhwy,serial-reaction-time,1,R,10,1,47,3124,0,2,475.09999999403954,422,L
2023-03-16T13:01:06Z,5ckvwhwy,serial-reaction-time,1,P,10,1,48,3124,0,4,508.699999988079,224,H
2023-03-16T13:01:07Z,5ckvwhwy,serial-reaction-time,1,R,10,1,49,3124,0,2,396.5,242,T
2023-03-16T13:01:07Z,5ckvwhwy,serial-reaction-time,NA,P,10,1,50,3124,0,3,340.59999999403954,423,H
2023-03-16T13:01:08Z,5ckvwhwy,serial-reaction-time,1,P,10,0,50,3124,0,3,888.4000000059605,423,H
2023-03-16T13:01:08Z,5ckvwhwy,serial-reaction-time,1,R,10,1,51,3124,0,1,434,231,L
2023-03-16T13:01:09Z,5ckvwhwy,serial-reaction-time,1,P,10,1,52,3124,0,1,365.09999999403954,311,H
2023-03-16T13:01:09Z,5ckvwhwy,serial-reaction-time,1,R,10,1,53,3124,0,4,410.2000000178814,114,L
2023-03-16T13:01:10Z,5ckvwhwy,serial-reaction-time,1,P,10,1,54,3124,0,2,498.199999988079,142,H
2023-03-16T13:01:11Z,5ckvwhwy,serial-reaction-time,1,R,10,1,55,3124,0,4,349.5,424,T
2023-03-16T13:01:11Z,5ckvwhwy,serial-reaction-time,1,P,10,1,56,3124,0,4,385.699999988079,244,H
2023-03-16T13:01:12Z,5ckvwhwy,serial-reaction-time,1,R,10,1,57,3124,0,3,389.5,443,H
2023-03-16T13:01:12Z,5ckvwhwy,serial-reaction-time,1,P,10,1,58,3124,0,3,316,433,H
2023-03-16T13:01:13Z,5ckvwhwy,serial-reaction-time,1,R,10,1,59,3124,0,3,431.699999988079,333,R
2023-03-16T13:01:13Z,5ckvwhwy,serial-reaction-time,1,P,10,1,60,3124,0,1,495.7000000178814,331,H
2023-03-16T13:01:14Z,5ckvwhwy,serial-reaction-time,1,R,10,1,61,3124,0,1,328.2999999821186,311,H
2023-03-16T13:01:15Z,5ckvwhwy,serial-reaction-time,1,P,10,1,62,3124,0,2,643.3000000119209,112,H
2023-03-16T13:01:15Z,5ckvwhwy,serial-reaction-time,1,R,10,1,63,3124,0,2,295.40000000596046,122,H
2023-03-16T13:01:16Z,5ckvwhwy,serial-reaction-time,1,P,10,1,64,3124,0,4,447.09999999403954,224,H
2023-03-16T13:01:16Z,5ckvwhwy,serial-reaction-time,1,R,10,1,65,3124,0,2,573.0999999940395,242,T
2023-03-16T13:01:17Z,5ckvwhwy,serial-reaction-time,1,P,10,1,66,3124,0,3,570.3000000119209,423,H
2023-03-16T13:01:18Z,5ckvwhwy,serial-reaction-time,1,R,10,1,67,3124,0,2,544.7999999821186,232,T
2023-03-16T13:01:18Z,5ckvwhwy,serial-reaction-time,1,P,10,1,68,3124,0,1,297.7999999821186,321,H
2023-03-16T13:01:19Z,5ckvwhwy,serial-reaction-time,1,R,10,1,69,3124,0,1,358.90000000596046,211,L
2023-03-16T13:01:19Z,5ckvwhwy,serial-reaction-time,1,P,10,1,70,3124,0,2,386.199999988079,112,H
2023-03-16T13:01:20Z,5ckvwhwy,serial-reaction-time,1,R,10,1,71,3124,0,1,578.4000000059605,121,T
2023-03-16T13:01:21Z,5ckvwhwy,serial-reaction-time,1,P,10,1,72,3124,0,4,456.2999999821186,214,H
2023-03-16T13:01:21Z,5ckvwhwy,serial-reaction-time,1,R,10,1,73,3124,0,2,604.4000000059605,142,H
2023-03-16T13:01:22Z,5ckvwhwy,serial-reaction-time,1,P,10,1,74,3124,0,3,359.90000000596046,423,H
2023-03-16T13:01:23Z,5ckvwhwy,serial-reaction-time,1,R,10,1,75,3124,0,3,360.7999999821186,233,L
2023-03-16T13:01:23Z,5ckvwhwy,serial-reaction-time,1,P,10,1,76,3124,0,1,421,331,H
2023-03-16T13:01:24Z,5ckvwhwy,serial-reaction-time,1,R,10,1,77,3124,0,4,445.300000011921,314,L
2023-03-16T13:01:24Z,5ckvwhwy,serial-reaction-time,1,P,10,1,78,3124,0,2,584.3999999761581,142,H
2023-03-16T13:01:25Z,5ckvwhwy,serial-reaction-time,1,R,10,1,79,3124,0,1,699.3000000119209,421,L
2023-03-16T13:01:26Z,5ckvwhwy,serial-reaction-time,1,P,10,1,80,3124,0,4,427.699999988079,214,H
2023-03-16T13:01:31Z,5ckvwhwy,html-keyboard-response,NA,NA,NA,NA,NA,NA,NA,NA,NA,NA,NA
2023-03-16T13:01:33Z,5ckvwhwy,html-keyboard-response,NA,NA,NA,NA,NA,NA,NA,NA,NA,NA,NA
2023-03-16T13:01:35Z,5ckvwhwy,serial-reaction-time,1,R,11,1,1,3124,0,1,510.60000002384186,1,X
2023-03-16T13:01:36Z,5ckvwhwy,serial-reaction-time,1,P,11,1,2,3124,0,3,568.7999999821186,13,X
2023-03-16T13:01:36Z,5ckvwhwy,serial-reaction-time,1,R,11,1,3,3124,0,3,304.19999998807907,133,L
2023-03-16T13:01:37Z,5ckvwhwy,serial-reaction-time,1,P,11,1,4,3124,0,1,395.40000000596046,331,H
2023-03-16T13:01:38Z,5ckvwhwy,serial-reaction-time,NA,R,11,1,5,3124,0,2,763.9000000059605,312,L
2023-03-16T13:01:38Z,5ckvwhwy,serial-reaction-time,1,R,11,0,5,3124,0,2,1087,312,L
2023-03-16T13:01:38Z,5ckvwhwy,serial-reaction-time,1,P,11,1,6,3124,0,2,307.40000000596046,122,H
2023-03-16T13:01:39Z,5ckvwhwy,serial-reaction-time,1,R,11,1,7,3124,0,4,421.300000011921,224,H
2023-03-16T13:01:39Z,5ckvwhwy,serial-reaction-time,1,P,11,1,8,3124,0,4,303.59999999403954,244,H
2023-03-16T13:01:40Z,5ckvwhwy,serial-reaction-time,1,R,11,1,9,3124,0,3,413.89999997615814,443,H
2023-03-16T13:01:40Z,5ckvwhwy,serial-reaction-time,1,P,11,1,10,3124,0,3,360.800000011921,433,H
2023-03-16T13:01:41Z,5ckvwhwy,serial-reaction-time,1,R,11,1,11,3124,0,4,312.2000000178814,334,L
2023-03-16T13:01:42Z,5ckvwhwy,serial-reaction-time,1,P,11,1,12,3124,0,1,488.800000011921,341,H
2023-03-16T13:01:42Z,5ckvwhwy,serial-reaction-time,1,R,11,1,13,3124,0,4,552.0999999940395,414,T
2023-03-16T13:01:43Z,5ckvwhwy,serial-reaction-time,1,P,11,1,14,3124,0,2,642.5,142,H
2023-03-16T13:01:44Z,5ckvwhwy,serial-reaction-time,NA,R,11,1,15,3124,0,3,373.2000000178814,423,H
2023-03-16T13:01:44Z,5ckvwhwy,serial-reaction-time,1,R,11,0,15,3124,0,3,766.8000000417233,423,H
2023-03-16T13:01:45Z,5ckvwhwy,serial-reaction-time,1,P,11,1,16,3124,0,4,371.09999999403954,234,H
2023-03-16T13:01:45Z,5ckvwhwy,serial-reaction-time,1,R,11,1,17,3124,0,2,488.699999988079,342,L
2023-03-16T13:01:46Z,5ckvwhwy,serial-reaction-time,1,P,11,1,18,3124,0,3,521.7000000178814,423,H
2023-03-16T13:01:47Z,5ckvwhwy,serial-reaction-time,1,R,11,1,19,3124,0,1,437.90000000596046,231,L
2023-03-16T13:01:47Z,5ckvwhwy,serial-reaction-time,1,P,11,1,20,3124,0,1,354,311,H
2023-03-16T13:01:48Z,5ckvwhwy,serial-reaction-time,1,R,11,1,21,3124,0,2,505.39999997615814,112,H
2023-03-16T13:01:48Z,5ckvwhwy,serial-reaction-time,1,P,11,1,22,3124,0,2,343.19999998807907,122,H
2023-03-16T13:01:49Z,5ckvwhwy,serial-reaction-time,1,R,11,1,23,3124,0,3,521.1000000238419,223,L
2023-03-16T13:01:49Z,5ckvwhwy,serial-reaction-time,1,P,11,1,24,3124,0,4,396.60000002384186,234,H
