datetime,id,trial_type,correct,p_or_r,block,first_response,trial_number,sequence,is_practice,correct_pos,cumulative_rt,actual_triplet,triplet_type
2023-04-04T14:09:30Z,usnnjdm9,fullscreen,NA,NA,NA,NA,NA,NA,NA,NA,NA,NA,NA
2023-04-04T14:09:34Z,usnnjdm9,html-keyboard-response,NA,NA,NA,NA,NA,NA,NA,NA,NA,NA,NA
2023-04-04T14:09:36Z,usnnjdm9,serial-reaction-time,1,R,1,1,1,4321,0,4,414.0999999977648,4,X
2023-04-04T14:09:36Z,usnnjdm9,serial-reaction-time,1,P,1,1,2,4321,0,4,323.30000000074506,44,X
2023-04-04T14:09:37Z,usnnjdm9,serial-reaction-time,1,R,1,1,3,4321,0,4,516.5,444,R
2023-04-04T14:09:37Z,usnnjdm9,serial-reaction-time,1,P,1,1,4,4321,0,3,358.4000000022352,443,H
2023-04-04T14:09:38Z,usnnjdm9,serial-reaction-time,1,R,1,1,5,4321,0,2,257.69999999925494,432,L
2023-04-04T14:09:38Z,usnnjdm9,serial-reaction-time,1,P,1,1,6,4321,0,2,308.70000000298023,322,H
2023-04-04T14:09:39Z,usnnjdm9,serial-reaction-time,1,R,1,1,7,4321,0,1,291.4000000022352,221,H
2023-04-04T14:09:39Z,usnnjdm9,serial-reaction-time,1,P,1,1,8,4321,0,1,284.6000000014901,211,H
2023-04-04T14:09:40Z,usnnjdm9,serial-reaction-time,1,R,1,1,9,4321,0,2,304.3999999985099,112,L
2023-04-04T14:09:40Z,usnnjdm9,serial-reaction-time,1,P,1,1,10,4321,0,4,359.5,124,H
2023-04-04T14:09:41Z,usnnjdm9,serial-reaction-time,1,R,1,1,11,4321,0,1,313.30000000074506,241,H
2023-04-04T14:09:41Z,usnnjdm9,serial-reaction-time,1,P,1,1,12,4321,0,3,266.6000000014901,413,H
2023-04-04T14:09:42Z,usnnjdm9,serial-reaction-time,1,R,1,1,13,4321,0,4,412.8999999985099,134,H
2023-04-04T14:09:42Z,usnnjdm9,serial-reaction-time,1,P,1,1,14,4321,0,2,296.30000000074506,342,H
2023-04-04T14:09:42Z,usnnjdm9,serial-reaction-time,1,R,1,1,15,4321,0,4,329.19999999925494,424,T
2023-04-04T14:09:43Z,usnnjdm9,serial-reaction-time,1,P,1,1,16,4321,0,1,380.6000000014901,241,H
2023-04-04T14:09:43Z,usnnjdm9,serial-reaction-time,1,R,1,1,17,4321,0,4,308.3999999985099,414,T
2023-04-04T14:09:44Z,usnnjdm9,serial-reaction-time,1,P,1,1,18,4321,0,4,334.19999999925494,144,H
2023-04-04T14:09:44Z,usnnjdm9,serial-reaction-time,1,R,1,1,19,4321,0,4,286.6000000014901,444,R
2023-04-04T14:09:45Z,usnnjdm9,serial-reaction-time,1,P,1,1,20,4321,0,3,368.30000000074506,443,H
2023-04-04T14:09:45Z,usnnjdm9,serial-reaction-time,1,R,1,1,21,4321,0,4,326.5,434,T
2023-04-04T14:09:46Z,usnnjdm9,serial-reaction-time,1,P,1,1,22,4321,0,2,301.3999999985099,342,H
2023-04-04T14:09:46Z,usnnjdm9,serial-reaction-time,1,R,1,1,23,4321,0,2,288.0999999977648,422,L
2023-04-04T14:09:47Z,usnnjdm9,serial-reaction-time,1,P,1,1,24,4321,0,1,288.6000000014901,221,H
2023-04-04T14:09:47Z,usnnjdm9,serial-reaction-time,1,R,1,1,25,4321,0,3,312,213,L
2023-04-04T14:09:47Z,usnnjdm9,serial-reaction-time,1,P,1,1,26,4321,0,4,275,134,H
2023-04-04T14:09:48Z,usnnjdm9,serial-reaction-time,1,R,1,1,27,4321,0,1,334.30000000074506,341,L
2023-04-04T14:09:48Z,usnnjdm9,serial-reaction-time,1,P,1,1,28,4321,0,3,304,413,H
2023-04-04T14:09:49Z,usnnjdm9,serial-reaction-time,1,R,1,1,29,4321,0,1,330.30000000074506,131,T
2023-04-04T14:09:49Z,usnnjdm9,serial-reaction-time,1,P,1,1,30,4321,0,2,432.6000000014901,312,H
2023-04-04T14:09:50Z,usnnjdm9,serial-reaction-time,1,R,1,1,31,4321,0,4,291.79999999701977,124,H
2023-04-04T14:09:50Z,usnnjdm9,serial-reaction-time,1,P,1,1,32,4321,0,1,252.69999999925497,241,H
2023-04-04T14:09:50Z,usnnjdm9,serial-reaction-time,NA,R,1,1,33,4321,0,4,256.5,414,T
2023-04-04T14:09:51Z,usnnjdm9,serial-reaction-time,1,R,1,0,33,4321,0,4,527.5,414,T
2023-04-04T14:09:51Z,usnnjdm9,serial-reaction-time,1,P,1,1,34,4321,0,4,291.9000000022352,144,H
2023-04-04T14:09:52Z,usnnjdm9,serial-reaction-time,1,R,1,1,35,4321,0,3,375.69999999925494,443,H
2023-04-04T14:09:52Z,usnnjdm9,serial-reaction-time,1,P,1,1,36,4321,0,3,263.5,433,H
2023-04-04T14:09:53Z,usnnjdm9,serial-reaction-time,1,R,1,1,37,4321,0,1,295.9000000022352,331,L
2023-04-04T14:09:53Z,usnnjdm9,serial-reaction-time,NA,P,1,1,38,4321,0,2,319.4000000022352,312,H
2023-04-04T14:09:53Z,usnnjdm9,serial-reaction-time,1,P,1,0,38,4321,0,2,566.3000000044703,312,H
2023-04-04T14:09:54Z,usnnjdm9,serial-reaction-time,1,R,1,1,39,4321,0,2,359.4000000022352,122,L
2023-04-04T14:09:54Z,usnnjdm9,serial-reaction-time,1,P,1,1,40,4321,0,1,398.5,221,H
2023-04-04T14:09:55Z,usnnjdm9,serial-reaction-time,1,R,1,1,41,4321,0,2,399.20000000298023,212,T
2023-04-04T14:09:55Z,usnnjdm9,serial-reaction-time,1,P,1,1,42,4321,0,4,315.0999999977648,124,H
2023-04-04T14:09:56Z,usnnjdm9,serial-reaction-time,1,R,1,1,43,4321,0,4,296.3999999985099,244,L
2023-04-04T14:09:56Z,usnnjdm9,serial-reaction-time,1,P,1,1,44,4321,0,3,345.1000000014901,443,H
2023-04-04T14:09:57Z,usnnjdm9,serial-reaction-time,1,R,1,1,45,4321,0,1,340.3999999985099,431,L
2023-04-04T14:09:57Z,usnnjdm9,serial-reaction-time,1,P,1,1,46,4321,0,2,300.69999999925494,312,H
2023-04-04T14:09:58Z,usnnjdm9,serial-reaction-time,1,R,1,1,47,4321,0,4,329.30000000074506,124,H
2023-04-04T14:09:58Z,usnnjdm9,serial-reaction-time,1,P,1,1,48,4321,0,1,429.5,241,H
2023-04-04T14:09:59Z,usnnjdm9,serial-reaction-time,1,R,1,1,49,4321,0,3,412.69999999925494,413,H
2023-04-04T14:09:59Z,usnnjdm9,serial-reaction-time,1,P,1,1,50,4321,0,4,342.1000000014901,134,H
2023-04-04T14:10:00Z,usnnjdm9,serial-reaction-time,1,R,1,1,51,4321,0,1,334.30000000074506,341,L
2023-04-04T14:10:00Z,usnnjdm9,serial-reaction-time,NA,P,1,1,52,4321,0,3,374.19999999925494,413,H
2023-04-04T14:10:00Z,usnnjdm9,serial-reaction-time,1,P,1,0,52,4321,0,3,746.3000000007451,413,H
2023-04-04T14:10:01Z,usnnjdm9,serial-reaction-time,1,R,1,1,53,4321,0,1,407,131,T
2023-04-04T14:10:02Z,usnnjdm9,serial-reaction-time,1,P,1,1,54,4321,0,2,424,312,H
2023-04-04T14:10:02Z,usnnjdm9,serial-reaction-time,1,R,1,1,55,4321,0,3,326.1000000014901,123,L
2023-04-04T14:10:02Z,usnnjdm9,serial-reaction-time,1,P,1,1,56,4321,0,1,302.6000000014901,231,H
2023-04-04T14:10:03Z,usnnjdm9,serial-reaction-time,NA,R,1,1,57,4321,0,2,388.69999999925494,312,H
2023-04-04T14:10:03Z,usnnjdm9,serial-reaction-time,1,R,1,0,57,4321,0,2,561.9999999962747,312,H
2023-04-04T14:10:04Z,usnnjdm9,serial-reaction-time,1,P,1,1,58,4321,0,4,499.20000000298023,124,H
2023-04-04T14:10:04Z,usnnjdm9,serial-reaction-time,1,R,1,1,59,4321,0,1,369.69999999925494,241,H
2023-04-04T14:10:05Z,usnnjdm9,serial-reaction-time,1,P,1,1,60,4321,0,3,349.19999999925494,413,H
2023-04-04T14:10:05Z,usnnjdm9,serial-reaction-time,1,R,1,1,61,4321,0,2,459.1000000014901,132,L
2023-04-04T14:10:06Z,usnnjdm9,serial-reaction-time,1,P,1,1,62,4321,0,2,361,322,H
2023-04-04T14:10:06Z,usnnjdm9,serial-reaction-time,1,R,1,1,63,4321,0,1,434.8999999985099,221,H
2023-04-04T14:10:07Z,usnnjdm9,serial-reaction-time,1,P,1,1,64,4321,0,1,381.20000000298023,211,H
2023-04-04T14:10:07Z,usnnjdm9,serial-reaction-time,1,R,1,1,65,4321,0,4,350.80000000074506,114,H
2023-04-04T14:10:08Z,usnnjdm9,serial-reaction-time,1,P,1,1,66,4321,0,4,308.30000000074506,144,H
2023-04-04T14:10:08Z,usnnjdm9,serial-reaction-time,1,R,1,1,67,4321,0,4,335.30000000074506,444,R
2023-04-04T14:10:09Z,usnnjdm9,serial-reaction-time,1,P,1,1,68,4321,0,3,399,443,H
2023-04-04T14:10:09Z,usnnjdm9,serial-reaction-time,1,R,1,1,69,4321,0,2,340.3999999985099,432,L
2023-04-04T14:10:10Z,usnnjdm9,serial-reaction-time,1,P,1,1,70,4321,0,2,306.5,322,H
2023-04-04T14:10:10Z,usnnjdm9,serial-reaction-time,1,R,1,1,71,4321,0,1,360.1000000014901,221,H
2023-04-04T14:10:11Z,usnnjdm9,serial-reaction-time,1,P,1,1,72,4321,0,1,304.30000000074506,211,H
2023-04-04T14:10:11Z,usnnjdm9,serial-reaction-time,1,R,1,1,73,4321,0,2,319.1000000014901,112,L
2023-04-04T14:10:12Z,usnnjdm9,serial-reaction-time,1,P,1,1,74,4321,0,4,368.80000000074506,124,H
2023-04-04T14:10:12Z,usnnjdm9,serial-reaction-time,1,R,1,1,75,4321,0,3,420.3999999985099,243,L
2023-04-04T14:10:13Z,usnnjdm9,serial-reaction-time,1,P,1,1,76,4321,0,3,318.29999999701977,433,H
2023-04-04T14:10:13Z,usnnjdm9,serial-reaction-time,1,R,1,1,77,4321,0,3,314.29999999701977,333,R
2023-04-04T14:10:14Z,usnnjdm9,serial-reaction-time,1,P,1,1,78,4321,0,2,342.19999999925494,332,H
2023-04-04T14:10:14Z,usnnjdm9,serial-reaction-time,1,R,1,1,79,4321,0,4,369.30000000074506,324,L
2023-04-04T14:10:15Z,usnnjdm9,serial-reaction-time,1,P,1,1,80,4321,0,1,380.79999999701977,241,H
2023-04-04T14:10:20Z,usnnjdm9,html-keyboard-response,NA,NA,NA,NA,NA,NA,NA,NA,NA,NA,NA
2023-04-04T14:10:30Z,usnnjdm9,html-keyboard-response,NA,NA,NA,NA,NA,NA,NA,NA,NA,NA,NA
2023-04-04T14:10:31Z,usnnjdm9,serial-reaction-time,1,R,2,1,1,4321,0,1,353.5,1,X
2023-04-04T14:10:31Z,usnnjdm9,serial-reaction-time,1,P,2,1,2,4321,0,4,283.1000000014901,14,X
2023-04-04T14:10:32Z,usnnjdm9,serial-reaction-time,1,R,2,1,3,4321,0,2,411.79999999701977,142,L
2023-04-04T14:10:32Z,usnnjdm9,serial-reaction-time,1,P,2,1,4,4321,0,3,396.80000000074506,423,H
2023-04-04T14:10:33Z,usnnjdm9,serial-reaction-time,NA,R,2,1,5,4321,0,1,261.5,231,H
2023-04-04T14:10:33Z,usnnjdm9,serial-reaction-time,1,R,2,0,5,4321,0,1,514.8999999985099,231,H
2023-04-04T14:10:34Z,usnnjdm9,serial-reaction-time,1,P,2,1,6,4321,0,2,350.3999999985099,312,H
2023-04-04T14:10:34Z,usnnjdm9,serial-reaction-time,1,R,2,1,7,4321,0,2,275,122,L
2023-04-04T14:10:34Z,usnnjdm9,serial-reaction-time,1,P,2,1,8,4321,0,1,279.3999999985099,221,H
2023-04-04T14:10:35Z,usnnjdm9,serial-reaction-time,1,R,2,1,9,4321,0,1,280.19999999925494,211,H
2023-04-04T14:10:35Z,usnnjdm9,serial-reaction-time,1,P,2,1,10,4321,0,4,423.3999999985099,114,H
2023-04-04T14:10:36Z,usnnjdm9,serial-reaction-time,1,R,2,1,11,4321,0,4,315.5,144,H
2023-04-04T14:10:36Z,usnnjdm9,serial-reaction-time,1,P,2,1,12,4321,0,3,346.19999999925494,443,H
2023-04-04T14:10:37Z,usnnjdm9,serial-reaction-time,1,R,2,1,13,4321,0,4,369.30000000074506,434,T
2023-04-04T14:10:37Z,usnnjdm9,serial-reaction-time,1,P,2,1,14,4321,0,2,268.19999999925494,342,H
2023-04-04T14:10:38Z,usnnjdm9,serial-reaction-time,1,R,2,1,15,4321,0,4,327.0999999977648,424,T
2023-04-04T14:10:38Z,usnnjdm9,serial-reaction-time,1,P,2,1,16,4321,0,1,310.69999999925494,241,H
2023-04-04T14:10:39Z,usnnjdm9,serial-reaction-time,1,R,2,1,17,4321,0,1,338.3999999985099,411,L
2023-04-04T14:10:39Z,usnnjdm9,serial-reaction-time,NA,P,2,1,18,4321,0,4,351.0999999977648,114,H
2023-04-04T14:10:39Z,usnnjdm9,serial-reaction-time,1,P,2,0,18,4321,0,4,384.69999999552965,114,H
2023-04-04T14:10:40Z,usnnjdm9,serial-reaction-time,1,R,2,1,19,4321,0,3,390.4000000022352,143,L
2023-04-04T14:10:40Z,usnnjdm9,serial-reaction-time,1,P,2,1,20,4321,0,3,258,433,H
2023-04-04T14:10:41Z,usnnjdm9,serial-reaction-time,1,R,2,1,21,4321,0,1,334.19999999925494,331,L
2023-04-04T14:10:41Z,usnnjdm9,serial-reaction-time,NA,P,2,1,22,4321,0,2,225.89999999850988,312,H
2023-04-04T14:10:41Z,usnnjdm9,serial-reaction-time,1,P,2,0,22,4321,0,2,458.4999999962747,312,H
2023-04-04T14:10:42Z,usnnjdm9,serial-reaction-time,1,R,2,1,23,4321,0,1,415.3999999985099,121,T
2023-04-04T14:10:42Z,usnnjdm9,serial-reaction-time,1,P,2,1,24,4321,0,1,304.3999999985099,211,H
2023-04-04T14:10:43Z,usnnjdm9,serial-reaction-time,1,R,2,1,25,4321,0,1,349.19999999925494,111,R
2023-04-04T14:10:43Z,usnnjdm9,serial-reaction-time,1,P,2,1,26,4321,0,4,318.5,114,H
2023-04-04T14:10:44Z,usnnjdm9,serial-reaction-time,1,R,2,1,27,4321,0,3,384.19999999925494,143,L
2023-04-04T14:10:44Z,usnnjdm9,serial-reaction-time,1,P,2,1,28,4321,0,3,295.6000000014901,433,H
2023-04-04T14:10:44Z,usnnjdm9,serial-reaction-time,1,R,2,1,29,4321,0,4,328.19999999925494,334,L
2023-04-04T14:10:45Z,usnnjdm9,serial-reaction-time,NA,P,2,1,30,4321,0,2,321.6000000014901,342,H
2023-04-04T14:10:45Z,usnnjdm9,serial-reaction-time,1,P,2,0,30,4321,0,2,543.8000000007451,342,H
2023-04-04T14:10:46Z,usnnjdm9,serial-reaction-time,1,R,2,1,31,4321,0,1,388.8999999985099,421,L
2023-04-04T14:10:46Z,usnnjdm9,serial-reaction-time,1,P,2,1,32,4321,0,1,300.0999999977648,211,H
2023-04-04T14:10:47Z,usnnjdm9,serial-reaction-time,1,R,2,1,33,4321,0,1,393.19999999925494,111,R
2023-04-04T14:10:47Z,usnnjdm9,serial-reaction-time,1,P,2,1,34,4321,0,4,310.30000000074506,114,H
2023-04-04T14:10:48Z,usnnjdm9,serial-reaction-time,1,R,2,1,35,4321,0,3,344.8999999985099,143,L
2023-04-04T14:10:48Z,usnnjdm9,serial-reaction-time,1,P,2,1,36,4321,0,3,340,433,H
2023-04-04T14:10:49Z,usnnjdm9,serial-reaction-time,1,R,2,1,37,4321,0,3,346.79999999701977,333,R
2023-04-04T14:10:49Z,usnnjdm9,serial-reaction-time,1,P,2,1,38,4321,0,2,373.1000000014901,332,H
2023-04-04T14:10:49Z,usnnjdm9,serial-reaction-time,1,R,2,1,39,4321,0,2,323,322,H
2023-04-04T14:10:50Z,usnnjdm9,serial-reaction-time,1,P,2,1,40,4321,0,1,314.5,221,H
2023-04-04T14:10:50Z,usnnjdm9,serial-reaction-time,1,R,2,1,41,4321,0,1,283.5,211,H
2023-04-04T14:10:51Z,usnnjdm9,serial-reaction-time,1,P,2,1,42,4321,0,4,330,114,H
2023-04-04T14:10:51Z,usnnjdm9,serial-reaction-time,1,R,2,1,43,4321,0,1,369.3999999985099,141,T
2023-04-04T14:10:52Z,usnnjdm9,serial-reaction-time,NA,P,2,1,44,4321,0,3,340.3999999985099,413,H
2023-04-04T14:10:52Z,usnnjdm9,serial-reaction-time,1,P,2,0,44,4321,0,3,421.5999999977648,413,H
2023-04-04T14:10:52Z,usnnjdm9,serial-reaction-time,1,R,2,1,45,4321,0,2,366.80000000074506,132,L
2023-04-04T14:10:53Z,usnnjdm9,serial-reaction-time,1,P,2,1,46,4321,0,2,299.4000000022352,322,H
2023-04-04T14:10:53Z,usnnjdm9,serial-reaction-time,1,R,2,1,47,4321,0,4,327.1000000014901,224,L
2023-04-04T14:10:54Z,usnnjdm9,serial-reaction-time,1,P,2,1,48,4321,0,1,291.80000000074506,241,H
2023-04-04T14:10:54Z,usnnjdm9,serial-reaction-time,1,R,2,1,49,4321,0,4,388.6000000014901,414,T
2023-04-04T14:10:55Z,usnnjdm9,serial-reaction-time,1,P,2,1,50,4321,0,4,393.8999999985099,144,H
2023-04-04T14:10:55Z,usnnjdm9,serial-reaction-time,NA,R,2,1,51,4321,0,2,335.8999999985099,442,L
2023-04-04T14:10:55Z,usnnjdm9,serial-reaction-time,1,R,2,0,51,4321,0,2,591.6999999992549,442,L
2023-04-04T14:10:56Z,usnnjdm9,serial-reaction-time,1,P,2,1,52,4321,0,3,430,423,H
2023-04-04T14:10:56Z,usnnjdm9,serial-reaction-time,1,R,2,1,53,4321,0,3,307.3999999985099,233,L
2023-04-04T14:10:57Z,usnnjdm9,serial-reaction-time,1,P,2,1,54,4321,0,2,354.19999999925494,332,H
2023-04-04T14:10:57Z,usnnjdm9,serial-reaction-time,1,R,2,1,55,4321,0,4,280.79999999701977,324,L
2023-04-04T14:10:58Z,usnnjdm9,serial-reaction-time,1,P,2,1,56,4321,0,1,299,241,H
2023-04-04T14:10:58Z,usnnjdm9,serial-reaction-time,1,R,2,1,57,4321,0,1,363.79999999701977,411,L
2023-04-04T14:10:59Z,usnnjdm9,serial-reaction-time,1,P,2,1,58,4321,0,4,309.9000000022352,114,H
2023-04-04T14:10:59Z,usnnjdm9,serial-reaction-time,1,R,2,1,59,4321,0,1,304.9000000022352,141,T
2023-04-04T14:11:00Z,usnnjdm9,serial-reaction-time,1,P,2,1,60,4321,0,3,462.8999999985099,413,H
2023-04-04T14:11:00Z,usnnjdm9,serial-reaction-time,1,R,2,1,61,4321,0,1,394.0999999977648,131,T
2023-04-04T14:11:01Z,usnnjdm9,serial-reaction-time,1,P,2,1,62,4321,0,2,417.8999999985099,312,H
2023-04-04T14:11:01Z,usnnjdm9,serial-reaction-time,1,R,2,1,63,4321,0,1,326.1000000014901,121,T
2023-04-04T14:11:02Z,usnnjdm9,serial-reaction-time,1,P,2,1,64,4321,0,1,384.8999999985099,211,H
2023-04-04T14:11:02Z,usnnjdm9,serial-reaction-time,1,R,2,1,65,4321,0,3,421.19999999925494,113,L
2023-04-04T14:11:03Z,usnnjdm9,serial-reaction-time,1,P,2,1,66,4321,0,4,359.1000000014901,134,H
2023-04-04T14:11:03Z,usnnjdm9,serial-reaction-time,1,R,2,1,67,4321,0,1,331,341,L
2023-04-04T14:11:04Z,usnnjdm9,serial-reaction-time,1,P,2,1,68,4321,0,3,448.4000000022352,413,H
2023-04-04T14:11:04Z,usnnjdm9,serial-reaction-time,1,R,2,1,69,4321,0,3,404.19999999925494,133,L
2023-04-04T14:11:05Z,usnnjdm9,serial-reaction-time,NA,P,2,1,70,4321,0,2,297.69999999925494,332,H
2023-04-04T14:11:05Z,usnnjdm9,serial-reaction-time,1,P,2,0,70,4321,0,2,524.6999999992549,332,H
2023-04-04T14:11:06Z,usnnjdm9,serial-reaction-time,1,R,2,1,71,4321,0,3,457.69999999925494,323,T
2023-04-04T14:11:06Z,usnnjdm9,serial-reaction-time,1,P,2,1,72,4321,0,1,339.80000000074506,231,H
2023-04-04T14:11:07Z,usnnjdm9,serial-reaction-time,1,R,2,1,73,4321,0,1,332.69999999925494,311,L
2023-04-04T14:11:07Z,usnnjdm9,serial-reaction-time,1,P,2,1,74,4321,0,4,381.1000000014901,114,H
2023-04-04T14:11:08Z,usnnjdm9,serial-reaction-time,1,R,2,1,75,4321,0,3,406.69999999925494,143,L
2023-04-04T14:11:08Z,usnnjdm9,serial-reaction-time,1,P,2,1,76,4321,0,3,333,433,H
2023-04-04T14:11:09Z,usnnjdm9,serial-reaction-time,1,R,2,1,77,4321,0,1,309.69999999925494,331,L
2023-04-04T14:11:09Z,usnnjdm9,serial-reaction-time,1,P,2,1,78,4321,0,2,387,312,H
2023-04-04T14:11:10Z,usnnjdm9,serial-reaction-time,1,R,2,1,79,4321,0,3,413.19999999925494,123,L
2023-04-04T14:11:10Z,usnnjdm9,serial-reaction-time,1,P,2,1,80,4321,0,1,379.29999999701977,231,H
2023-04-04T14:11:15Z,usnnjdm9,html-keyboard-response,NA,NA,NA,NA,NA,NA,NA,NA,NA,NA,NA
2023-04-04T14:11:16Z,usnnjdm9,html-keyboard-response,NA,NA,NA,NA,NA,NA,NA,NA,NA,NA,NA
2023-04-04T14:11:17Z,usnnjdm9,serial-reaction-time,1,R,3,1,1,4321,0,2,467.70000000298023,2,X
2023-04-04T14:11:18Z,usnnjdm9,serial-reaction-time,1,P,3,1,2,4321,0,4,360.5,24,X
2023-04-04T14:11:18Z,usnnjdm9,serial-reaction-time,1,R,3,1,3,4321,0,4,288.80000000074506,244,L
2023-04-04T14:11:19Z,usnnjdm9,serial-reaction-time,1,P,3,1,4,4321,0,3,305.80000000074506,443,H
2023-04-04T14:11:19Z,usnnjdm9,serial-reaction-time,1,R,3,1,5,4321,0,3,313.1000000014901,433,H
2023-04-04T14:11:20Z,usnnjdm9,serial-reaction-time,1,P,3,1,6,4321,0,2,314.30000000074506,332,H
2023-04-04T14:11:20Z,usnnjdm9,serial-reaction-time,1,R,3,1,7,4321,0,3,338.80000000074506,323,T
2023-04-04T14:11:21Z,usnnjdm9,serial-reaction-time,1,P,3,1,8,4321,0,1,361,231,H
2023-04-04T14:11:21Z,usnnjdm9,serial-reaction-time,1,R,3,1,9,4321,0,1,359.4000000022352,311,L
2023-04-04T14:11:22Z,usnnjdm9,serial-reaction-time,1,P,3,1,10,4321,0,4,363.3999999985099,114,H
2023-04-04T14:11:22Z,usnnjdm9,serial-reaction-time,1,R,3,1,11,4321,0,4,411.5,144,H
2023-04-04T14:11:23Z,usnnjdm9,serial-reaction-time,1,P,3,1,12,4321,0,3,301.30000000074506,443,H
2023-04-04T14:11:23Z,usnnjdm9,serial-reaction-time,1,R,3,1,13,4321,0,4,338.3999999985099,434,T
2023-04-04T14:11:24Z,usnnjdm9,serial-reaction-time,1,P,3,1,14,4321,0,2,353.3999999985099,342,H
2023-04-04T14:11:24Z,usnnjdm9,serial-reaction-time,1,R,3,1,15,4321,0,1,456.5,421,L
2023-04-04T14:11:25Z,usnnjdm9,serial-reaction-time,1,P,3,1,16,4321,0,1,293.80000000074506,211,H
2023-04-04T14:11:25Z,usnnjdm9,serial-reaction-time,1,R,3,1,17,4321,0,2,489.30000000074506,112,L
2023-04-04T14:11:26Z,usnnjdm9,serial-reaction-time,1,P,3,1,18,4321,0,4,344,124,H
2023-04-04T14:11:26Z,usnnjdm9,serial-reaction-time,1,R,3,1,19,4321,0,2,380.6000000014901,242,T
2023-04-04T14:11:27Z,usnnjdm9,serial-reaction-time,NA,P,3,1,20,4321,0,3,332.3999999985099,423,H
2023-04-04T14:11:27Z,usnnjdm9,serial-reaction-time,1,P,3,0,20,4321,0,3,593.0999999977648,423,H
2023-04-04T14:11:27Z,usnnjdm9,serial-reaction-time,1,R,3,1,21,4321,0,1,285.69999999925494,231,H
2023-04-04T14:11:28Z,usnnjdm9,serial-reaction-time,1,P,3,1,22,4321,0,2,394.5,312,H
2023-04-04T14:11:29Z,usnnjdm9,serial-reaction-time,1,R,3,1,23,4321,0,4,431.6000000014901,124,H
2023-04-04T14:11:29Z,usnnjdm9,serial-reaction-time,NA,P,3,1,24,4321,0,1,300.69999999925494,241,H
2023-04-04T14:11:29Z,usnnjdm9,serial-reaction-time,1,P,3,0,24,4321,0,1,585.3000000007451,241,H
2023-04-04T14:11:30Z,usnnjdm9,serial-reaction-time,1,R,3,1,25,4321,0,3,451.70000000298023,413,H
2023-04-04T14:11:30Z,usnnjdm9,serial-reaction-time,NA,P,3,1,26,4321,0,4,342.0999999977648,134,H
2023-04-04T14:11:30Z,usnnjdm9,serial-reaction-time,1,P,3,0,26,4321,0,4,477.9999999962747,134,H
2023-04-04T14:11:31Z,usnnjdm9,serial-reaction-time,1,R,3,1,27,4321,0,2,444.1000000014901,342,H
2023-04-04T14:11:32Z,usnnjdm9,serial-reaction-time,1,P,3,1,28,4321,0,3,374,423,H
2023-04-04T14:11:32Z,usnnjdm9,serial-reaction-time,1,R,3,1,29,4321,0,1,362.5,231,H
2023-04-04T14:11:33Z,usnnjdm9,serial-reaction-time,1,P,3,1,30,4321,0,2,496.70000000298023,312,H
2023-04-04T14:11:33Z,usnnjdm9,serial-reaction-time,1,R,3,1,31,4321,0,4,404.69999999925494,124,H
2023-04-04T14:11:34Z,usnnjdm9,serial-reaction-time,1,P,3,1,32,4321,0,1,370.5,241,H
2023-04-04T14:11:34Z,usnnjdm9,serial-reaction-time,1,R,3,1,33,4321,0,2,340,412,L
2023-04-04T14:11:35Z,usnnjdm9,serial-reaction-time,1,P,3,1,34,4321,0,4,392.69999999925494,124,H
2023-04-04T14:11:35Z,usnnjdm9,serial-reaction-time,1,R,3,1,35,4321,0,3,463.4000000022352,243,L
2023-04-04T14:11:36Z,usnnjdm9,serial-reaction-time,1,P,3,1,36,4321,0,3,313.1000000014901,433,H
2023-04-04T14:11:36Z,usnnjdm9,serial-reaction-time,1,R,3,1,37,4321,0,3,312.8999999985099,333,R
2023-04-04T14:11:37Z,usnnjdm9,serial-reaction-time,1,P,3,1,38,4321,0,2,354.19999999925494,332,H
2023-04-04T14:11:37Z,usnnjdm9,serial-reaction-time,1,R,3,1,39,4321,0,4,334.69999999925494,324,L
2023-04-04T14:11:38Z,usnnjdm9,serial-reaction-time,1,P,3,1,40,4321,0,1,384.29999999701977,241,H
2023-04-04T14:11:38Z,usnnjdm9,serial-reaction-time,1,R,3,1,41,4321,0,4,358.4000000022352,414,T
2023-04-04T14:11:39Z,usnnjdm9,serial-reaction-time,1,P,3,1,42,4321,0,4,432.20000000298023,144,H
2023-04-04T14:11:39Z,usnnjdm9,serial-reaction-time,1,R,3,1,43,4321,0,1,334.0999999977648,441,L
2023-04-04T14:11:40Z,usnnjdm9,serial-reaction-time,1,P,3,1,44,4321,0,3,439.4000000022352,413,H
2023-04-04T14:11:40Z,usnnjdm9,serial-reaction-time,NA,R,3,1,45,4321,0,2,318.70000000298023,132,L
2023-04-04T14:11:41Z,usnnjdm9,serial-reaction-time,1,R,3,0,45,4321,0,2,609.6000000014901,132,L
2023-04-04T14:11:41Z,usnnjdm9,serial-reaction-time,1,P,3,1,46,4321,0,2,333.30000000074506,322,H
2023-04-04T14:11:42Z,usnnjdm9,serial-reaction-time,NA,R,3,1,47,4321,0,3,375.30000000074506,223,L
2023-04-04T14:11:42Z,usnnjdm9,serial-reaction-time,1,R,3,0,47,4321,0,3,690,223,L
2023-04-04T14:11:42Z,usnnjdm9,serial-reaction-time,1,P,3,1,48,4321,0,1,409.6000000014901,231,H
2023-04-04T14:11:43Z,usnnjdm9,serial-reaction-time,1,R,3,1,49,4321,0,1,320.29999999701977,311,L
2023-04-04T14:11:43Z,usnnjdm9,serial-reaction-time,1,P,3,1,50,4321,0,4,375.80000000074506,114,H
2023-04-04T14:11:44Z,usnnjdm9,serial-reaction-time,1,R,3,1,51,4321,0,3,388.6000000014901,143,L
2023-04-04T14:11:44Z,usnnjdm9,serial-reaction-time,1,P,3,1,52,4321,0,3,372.19999999925494,433,H
2023-04-04T14:11:45Z,usnnjdm9,serial-reaction-time,1,R,3,1,53,4321,0,1,319.19999999925494,331,L
2023-04-04T14:11:45Z,usnnjdm9,serial-reaction-time,1,P,3,1,54,4321,0,2,403.0999999977648,312,H
2023-04-04T14:11:46Z,usnnjdm9,serial-reaction-time,1,R,3,1,55,4321,0,2,360.80000000074506,122,L
2023-04-04T14:11:46Z,usnnjdm9,serial-reaction-time,1,P,3,1,56,4321,0,1,393.0999999977648,221,H
2023-04-04T14:11:47Z,usnnjdm9,serial-reaction-time,1,R,3,1,57,4321,0,2,344.80000000074506,212,T
2023-04-04T14:11:47Z,usnnjdm9,serial-reaction-time,1,P,3,1,58,4321,0,4,396.0999999977648,124,H
2023-04-04T14:11:48Z,usnnjdm9,serial-reaction-time,1,R,3,1,59,4321,0,3,400.19999999925494,243,L
2023-04-04T14:11:48Z,usnnjdm9,serial-reaction-time,1,P,3,1,60,4321,0,3,327.69999999925494,433,H
2023-04-04T14:11:49Z,usnnjdm9,serial-reaction-time,1,R,3,1,61,4321,0,3,349.6000000014901,333,R
2023-04-04T14:11:49Z,usnnjdm9,serial-reaction-time,1,P,3,1,62,4321,0,2,297.5,332,H
2023-04-04T14:11:50Z,usnnjdm9,serial-reaction-time,1,R,3,1,63,4321,0,2,298.5999999977648,322,H
2023-04-04T14:11:50Z,usnnjdm9,serial-reaction-time,1,P,3,1,64,4321,0,1,312.5,221,H
2023-04-04T14:11:51Z,usnnjdm9,serial-reaction-time,1,R,3,1,65,4321,0,4,383.79999999701977,214,L
2023-04-04T14:11:51Z,usnnjdm9,serial-reaction-time,1,P,3,1,66,4321,0,4,302.6000000014901,144,H
2023-04-04T14:11:52Z,usnnjdm9,serial-reaction-time,1,R,3,1,67,4321,0,1,374.3999999985099,441,L
2023-04-04T14:11:52Z,usnnjdm9,serial-reaction-time,1,P,3,1,68,4321,0,3,368.19999999925494,413,H
2023-04-04T14:11:53Z,usnnjdm9,serial-reaction-time,1,R,3,1,69,4321,0,4,345.5,134,H
2023-04-04T14:11:53Z,usnnjdm9,serial-reaction-time,1,P,3,1,70,4321,0,2,395.3999999985099,342,H
2023-04-04T14:11:54Z,usnnjdm9,serial-reaction-time,NA,R,3,1,71,4321,0,2,348.19999999925494,422,L
2023-04-04T14:11:54Z,usnnjdm9,serial-reaction-time,1,R,3,0,71,4321,0,2,355.5999999977648,422,L
2023-04-04T14:11:54Z,usnnjdm9,serial-reaction-time,1,P,3,1,72,4321,0,1,428.69999999925494,221,H
2023-04-04T14:11:55Z,usnnjdm9,serial-reaction-time,1,R,3,1,73,4321,0,3,532.6999999992549,213,L
2023-04-04T14:11:55Z,usnnjdm9,serial-reaction-time,1,P,3,1,74,4321,0,4,408.9000000022352,134,H
2023-04-04T14:11:56Z,usnnjdm9,serial-reaction-time,1,R,3,1,75,4321,0,4,294,344,L
2023-04-04T14:11:56Z,usnnjdm9,serial-reaction-time,1,P,3,1,76,4321,0,3,445.4000000022352,443,H
2023-04-04T14:11:57Z,usnnjdm9,serial-reaction-time,1,R,3,1,77,4321,0,2,320.69999999925494,432,L
2023-04-04T14:11:57Z,usnnjdm9,serial-reaction-time,1,P,3,1,78,4321,0,2,398.1000000014901,322,H
2023-04-04T14:11:58Z,usnnjdm9,serial-reaction-time,1,R,3,1,79,4321,0,3,347.19999999925494,223,L
2023-04-04T14:11:58Z,usnnjdm9,serial-reaction-time,1,P,3,1,80,4321,0,1,347.8999999985099,231,H
2023-04-04T14:12:03Z,usnnjdm9,html-keyboard-response,NA,NA,NA,NA,NA,NA,NA,NA,NA,NA,NA
2023-04-04T14:12:12Z,usnnjdm9,html-keyboard-response,NA,NA,NA,NA,NA,NA,NA,NA,NA,NA,NA
2023-04-04T14:12:14Z,usnnjdm9,serial-reaction-time,1,R,4,1,1,4321,0,1,328.69999999925494,1,X
2023-04-04T14:12:14Z,usnnjdm9,serial-reaction-time,1,P,4,1,2,4321,0,4,313.30000000074506,14,X
2023-04-04T14:12:14Z,usnnjdm9,serial-reaction-time,1,R,4,1,3,4321,0,4,254.60000000149012,144,H
2023-04-04T14:12:15Z,usnnjdm9,serial-reaction-time,1,P,4,1,4,4321,0,3,318.6000000014901,443,H
2023-04-04T14:12:15Z,usnnjdm9,serial-reaction-time,1,R,4,1,5,4321,0,4,338.80000000074506,434,T
2023-04-04T14:12:16Z,usnnjdm9,serial-reaction-time,1,P,4,1,6,4321,0,2,351.6000000014901,342,H
2023-04-04T14:12:16Z,usnnjdm9,serial-reaction-time,1,R,4,1,7,4321,0,1,392.80000000074506,421,L
2023-04-04T14:12:17Z,usnnjdm9,serial-reaction-time,1,P,4,1,8,4321,0,1,278.69999999925494,211,H
2023-04-04T14:12:17Z,usnnjdm9,serial-reaction-time,1,R,4,1,9,4321,0,3,358.6000000014901,113,L
2023-04-04T14:12:18Z,usnnjdm9,serial-reaction-time,1,P,4,1,10,4321,0,4,349.79999999701977,134,H
2023-04-04T14:12:18Z,usnnjdm9,serial-reaction-time,1,R,4,1,11,4321,0,4,344.3999999985099,344,L
2023-04-04T14:12:19Z,usnnjdm9,serial-reaction-time,1,P,4,1,12,4321,0,3,378.69999999925494,443,H
2023-04-04T14:12:19Z,usnnjdm9,serial-reaction-time,1,R,4,1,13,4321,0,4,305.4000000022352,434,T
2023-04-04T14:12:20Z,usnnjdm9,serial-reaction-time,1,P,4,1,14,4321,0,2,441.19999999925494,342,H
2023-04-04T14:12:20Z,usnnjdm9,serial-reaction-time,1,R,4,1,15,4321,0,1,422.30000000074506,421,L
2023-04-04T14:12:21Z,usnnjdm9,serial-reaction-time,1,P,4,1,16,4321,0,1,348.30000000074506,211,H
2023-04-04T14:12:21Z,usnnjdm9,serial-reaction-time,1,R,4,1,17,4321,0,1,312.80000000074506,111,R
2023-04-04T14:12:22Z,usnnjdm9,serial-reaction-time,1,P,4,1,18,4321,0,4,278.30000000074506,114,H
2023-04-04T14:12:22Z,usnnjdm9,serial-reaction-time,1,R,4,1,19,4321,0,2,368.79999999701977,142,L
2023-04-04T14:12:23Z,usnnjdm9,serial-reaction-time,NA,P,4,1,20,4321,0,3,261,423,H
2023-04-04T14:12:23Z,usnnjdm9,serial-reaction-time,1,P,4,0,20,4321,0,3,535,423,H
2023-04-04T14:12:23Z,usnnjdm9,serial-reaction-time,1,R,4,1,21,4321,0,4,425.0999999977648,234,L
2023-04-04T14:12:24Z,usnnjdm9,serial-reaction-time,1,P,4,1,22,4321,0,2,373.19999999925494,342,H
2023-04-04T14:12:24Z,usnnjdm9,serial-reaction-time,1,R,4,1,23,4321,0,4,403.6000000014901,424,T
2023-04-04T14:12:25Z,usnnjdm9,serial-reaction-time,1,P,4,1,24,4321,0,1,277.69999999925494,241,H
2023-04-04T14:12:25Z,usnnjdm9,serial-reaction-time,1,R,4,1,25,4321,0,1,344,411,L
2023-04-04T14:12:26Z,usnnjdm9,serial-reaction-time,1,P,4,1,26,4321,0,4,338.3999999985099,114,H
2023-04-04T14:12:26Z,usnnjdm9,serial-reaction-time,1,R,4,1,27,4321,0,2,478.20000000298023,142,L
2023-04-04T14:12:27Z,usnnjdm9,serial-reaction-time,1,P,4,1,28,4321,0,3,377.5999999977648,423,H
2023-04-04T14:12:27Z,usnnjdm9,serial-reaction-time,1,R,4,1,29,4321,0,2,426.3999999985099,232,T
2023-04-04T14:12:28Z,usnnjdm9,serial-reaction-time,1,P,4,1,30,4321,0,2,525.5,322,H
2023-04-04T14:12:29Z,usnnjdm9,serial-reaction-time,1,R,4,1,31,4321,0,3,318.70000000298023,223,L
2023-04-04T14:12:29Z,usnnjdm9,serial-reaction-time,NA,P,4,1,32,4321,0,1,298,231,H
2023-04-04T14:12:29Z,usnnjdm9,serial-reaction-time,1,P,4,0,32,4321,0,1,469.1000000014901,231,H
2023-04-04T14:12:30Z,usnnjdm9,serial-reaction-time,1,R,4,1,33,4321,0,4,264.5,314,L
2023-04-04T14:12:30Z,usnnjdm9,serial-reaction-time,1,P,4,1,34,4321,0,4,293.3999999985099,144,H
2023-04-04T14:12:30Z,usnnjdm9,serial-reaction-time,1,R,4,1,35,4321,0,1,273.6000000014901,441,L
2023-04-04T14:12:31Z,usnnjdm9,serial-reaction-time,1,P,4,1,36,4321,0,3,361.79999999701977,413,H
2023-04-04T14:12:31Z,usnnjdm9,serial-reaction-time,1,R,4,1,37,4321,0,3,323.3999999985099,133,L
2023-04-04T14:12:32Z,usnnjdm9,serial-reaction-time,NA,P,4,1,38,4321,0,2,330.69999999925494,332,H
2023-04-04T14:12:32Z,usnnjdm9,serial-reaction-time,1,P,4,0,38,4321,0,2,457.3999999985099,332,H
2023-04-04T14:12:33Z,usnnjdm9,serial-reaction-time,1,R,4,1,39,4321,0,3,414.80000000074506,323,T
2023-04-04T14:12:33Z,usnnjdm9,serial-reaction-time,1,P,4,1,40,4321,0,1,321.80000000074506,231,H
2023-04-04T14:12:33Z,usnnjdm9,serial-reaction-time,NA,R,4,1,41,4321,0,3,328.6000000014901,313,T
2023-04-04T14:12:34Z,usnnjdm9,serial-reaction-time,1,R,4,0,41,4321,0,3,568.6000000014901,313,T
2023-04-04T14:12:34Z,usnnjdm9,serial-reaction-time,1,P,4,1,42,4321,0,4,432.80000000074506,134,H
2023-04-04T14:12:35Z,usnnjdm9,serial-reaction-time,1,R,4,1,43,4321,0,4,439.3999999985099,344,L
2023-04-04T14:12:35Z,usnnjdm9,serial-reaction-time,1,P,4,1,44,4321,0,3,411.0999999977648,443,H
2023-04-04T14:12:36Z,usnnjdm9,serial-reaction-time,1,R,4,1,45,4321,0,2,287.1000000014901,432,L
2023-04-04T14:12:36Z,usnnjdm9,serial-reaction-time,1,P,4,1,46,4321,0,2,313,322,H
2023-04-04T14:12:37Z,usnnjdm9,serial-reaction-time,NA,R,4,1,47,4321,0,4,333.5,224,L
2023-04-04T14:12:37Z,usnnjdm9,serial-reaction-time,1,R,4,0,47,4321,0,4,671.4000000022352,224,L
2023-04-04T14:12:38Z,usnnjdm9,serial-reaction-time,1,P,4,1,48,4321,0,1,401.69999999925494,241,H
2023-04-04T14:12:38Z,usnnjdm9,serial-reaction-time,NA,R,4,1,49,4321,0,2,405.80000000074506,412,L
2023-04-04T14:12:38Z,usnnjdm9,serial-reaction-time,1,R,4,0,49,4321,0,2,732.3999999985099,412,L
2023-04-04T14:12:39Z,usnnjdm9,serial-reaction-time,NA,P,4,1,50,4321,0,4,309.3999999985099,124,H
2023-04-04T14:12:39Z,usnnjdm9,serial-reaction-time,1,P,4,0,50,4321,0,4,554.3999999985099,124,H
2023-04-04T14:12:40Z,usnnjdm9,serial-reaction-time,1,R,4,1,51,4321,0,1,462.0999999977648,241,H
2023-04-04T14:12:40Z,usnnjdm9,serial-reaction-time,NA,P,4,1,52,4321,0,3,347.5,413,H
2023-04-04T14:12:40Z,usnnjdm9,serial-reaction-time,1,P,4,0,52,4321,0,3,496.3999999985099,413,H
2023-04-04T14:12:41Z,usnnjdm9,serial-reaction-time,1,R,4,1,53,4321,0,4,455.4000000022352,134,H
2023-04-04T14:12:42Z,usnnjdm9,serial-reaction-time,1,P,4,1,54,4321,0,2,386.8999999985099,342,H
2023-04-04T14:12:42Z,usnnjdm9,serial-reaction-time,1,R,4,1,55,4321,0,4,329.1000000014901,424,T
2023-04-04T14:12:43Z,usnnjdm9,serial-reaction-time,1,P,4,1,56,4321,0,1,508.30000000074506,241,H
2023-04-04T14:12:43Z,usnnjdm9,serial-reaction-time,1,R,4,1,57,4321,0,2,440.69999999925494,412,L
2023-04-04T14:12:44Z,usnnjdm9,serial-reaction-time,1,P,4,1,58,4321,0,4,428.1000000014901,124,H
2023-04-04T14:12:44Z,usnnjdm9,serial-reaction-time,1,R,4,1,59,4321,0,1,388.0999999977648,241,H
2023-04-04T14:12:45Z,usnnjdm9,serial-reaction-time,1,P,4,1,60,4321,0,3,592.5999999977648,413,H
2023-04-04T14:12:45Z,usnnjdm9,serial-reaction-time,1,R,4,1,61,4321,0,4,308,134,H
2023-04-04T14:12:46Z,usnnjdm9,serial-reaction-time,1,P,4,1,62,4321,0,2,575.9000000022352,342,H
2023-04-04T14:12:47Z,usnnjdm9,serial-reaction-time,1,R,4,1,63,4321,0,2,385.6000000014901,422,L
2023-04-04T14:12:47Z,usnnjdm9,serial-reaction-time,1,P,4,1,64,4321,0,1,407.70000000298023,221,H
2023-04-04T14:12:48Z,usnnjdm9,serial-reaction-time,1,R,4,1,65,4321,0,2,396.0999999977648,212,T
2023-04-04T14:12:48Z,usnnjdm9,serial-reaction-time,1,P,4,1,66,4321,0,4,360.4000000022352,124,H
2023-04-04T14:12:49Z,usnnjdm9,serial-reaction-time,1,R,4,1,67,4321,0,1,398,241,H
2023-04-04T14:12:49Z,usnnjdm9,serial-reaction-time,1,P,4,1,68,4321,0,3,391.4000000022352,413,H
2023-04-04T14:12:50Z,usnnjdm9,serial-reaction-time,1,R,4,1,69,4321,0,2,503.80000000074506,132,L
2023-04-04T14:12:50Z,usnnjdm9,serial-reaction-time,1,P,4,1,70,4321,0,2,403.1000000014901,322,H
2023-04-04T14:12:51Z,usnnjdm9,serial-reaction-time,1,R,4,1,71,4321,0,3,411.69999999925494,223,L
2023-04-04T14:12:51Z,usnnjdm9,serial-reaction-time,1,P,4,1,72,4321,0,1,323.80000000074506,231,H
2023-04-04T14:12:52Z,usnnjdm9,serial-reaction-time,1,R,4,1,73,4321,0,3,352,313,T
2023-04-04T14:12:52Z,usnnjdm9,serial-reaction-time,1,P,4,1,74,4321,0,4,372.20000000298023,134,H
2023-04-04T14:12:53Z,usnnjdm9,serial-reaction-time,1,R,4,1,75,4321,0,4,331.5,344,L
2023-04-04T14:12:53Z,usnnjdm9,serial-reaction-time,1,P,4,1,76,4321,0,3,387.80000000074506,443,H
2023-04-04T14:12:54Z,usnnjdm9,serial-reaction-time,1,R,4,1,77,4321,0,1,365.80000000074506,431,L
2023-04-04T14:12:55Z,usnnjdm9,serial-reaction-time,1,P,4,1,78,4321,0,2,404.80000000074506,312,H
2023-04-04T14:12:55Z,usnnjdm9,serial-reaction-time,1,R,4,1,79,4321,0,2,383.29999999701977,122,L
2023-04-04T14:12:56Z,usnnjdm9,serial-reaction-time,1,P,4,1,80,4321,0,1,370,221,H
2023-04-04T14:13:01Z,usnnjdm9,html-keyboard-response,NA,NA,NA,NA,NA,NA,NA,NA,NA,NA,NA
2023-04-04T14:13:01Z,usnnjdm9,html-keyboard-response,NA,NA,NA,NA,NA,NA,NA,NA,NA,NA,NA
2023-04-04T14:13:02Z,usnnjdm9,serial-reaction-time,1,R,5,1,1,4321,0,2,448.8999999985099,2,X
2023-04-04T14:13:03Z,usnnjdm9,serial-reaction-time,1,P,5,1,2,4321,0,4,329.30000000074506,24,X
2023-04-04T14:13:03Z,usnnjdm9,serial-reaction-time,1,R,5,1,3,4321,0,1,473.0999999977648,241,H
2023-04-04T14:13:04Z,usnnjdm9,serial-reaction-time,1,P,5,1,4,4321,0,3,367.5999999977648,413,H
2023-04-04T14:13:04Z,usnnjdm9,serial-reaction-time,1,R,5,1,5,4321,0,1,257.5999999977648,131,T
2023-04-04T14:13:05Z,usnnjdm9,serial-reaction-time,1,P,5,1,6,4321,0,2,366.5,312,H
2023-04-04T14:13:05Z,usnnjdm9,serial-reaction-time,1,R,5,1,7,4321,0,1,326.5,121,T
2023-04-04T14:13:06Z,usnnjdm9,serial-reaction-time,1,P,5,1,8,4321,0,1,337.1000000014901,211,H
2023-04-04T14:13:06Z,usnnjdm9,serial-reaction-time,1,R,5,1,9,4321,0,2,406.69999999925494,112,L
2023-04-04T14:13:07Z,usnnjdm9,serial-reaction-time,1,P,5,1,10,4321,0,4,312.19999999925494,124,H
2023-04-04T14:13:07Z,usnnjdm9,serial-reaction-time,NA,R,5,1,11,4321,0,2,267.19999999925494,242,T
2023-04-04T14:13:07Z,usnnjdm9,serial-reaction-time,1,R,5,0,11,4321,0,2,498.8999999985099,242,T
2023-04-04T14:13:08Z,usnnjdm9,serial-reaction-time,1,P,5,1,12,4321,0,3,401.6000000014901,423,H
2023-04-04T14:13:08Z,usnnjdm9,serial-reaction-time,1,R,5,1,13,4321,0,1,283.69999999925494,231,H
2023-04-04T14:13:09Z,usnnjdm9,serial-reaction-time,1,P,5,1,14,4321,0,2,318.1000000014901,312,H
2023-04-04T14:13:09Z,usnnjdm9,serial-reaction-time,1,R,5,1,15,4321,0,1,323.6000000014901,121,T
2023-04-04T14:13:10Z,usnnjdm9,serial-reaction-time,1,P,5,1,16,4321,0,1,327.19999999925494,211,H
2023-04-04T14:13:10Z,usnnjdm9,serial-reaction-time,1,R,5,1,17,4321,0,4,403.0999999977648,114,H
2023-04-04T14:13:11Z,usnnjdm9,serial-reaction-time,1,P,5,1,18,4321,0,4,362.0999999977648,144,H
2023-04-04T14:13:11Z,usnnjdm9,serial-reaction-time,1,R,5,1,19,4321,0,4,273.3999999985099,444,R
2023-04-04T14:13:12Z,usnnjdm9,serial-reaction-time,1,P,5,1,20,4321,0,3,359.80000000074506,443,H
2023-04-04T14:13:12Z,usnnjdm9,serial-reaction-time,1,R,5,1,21,4321,0,1,331.5,431,L
2023-04-04T14:13:13Z,usnnjdm9,serial-reaction-time,1,P,5,1,22,4321,0,2,333.1000000014901,312,H
2023-04-04T14:13:13Z,usnnjdm9,serial-reaction-time,1,R,5,1,23,4321,0,1,248,121,T
2023-04-04T14:13:13Z,usnnjdm9,serial-reaction-time,1,P,5,1,24,4321,0,1,339.0999999977648,211,H
2023-04-04T14:13:14Z,usnnjdm9,serial-reaction-time,1,R,5,1,25,4321,0,4,306.1000000014901,114,H
2023-04-04T14:13:14Z,usnnjdm9,serial-reaction-time,1,P,5,1,26,4321,0,4,298.5,144,H
2023-04-04T14:13:15Z,usnnjdm9,serial-reaction-time,NA,R,5,1,27,4321,0,1,282.3999999985099,441,L
2023-04-04T14:13:15Z,usnnjdm9,serial-reaction-time,1,R,5,0,27,4321,0,1,580.9999999962747,441,L
2023-04-04T14:13:16Z,usnnjdm9,serial-reaction-time,1,P,5,1,28,4321,0,3,368.3999999985099,413,H
2023-04-04T14:13:16Z,usnnjdm9,serial-reaction-time,1,R,5,1,29,4321,0,1,310.30000000074506,131,T
2023-04-04T14:13:17Z,usnnjdm9,serial-reaction-time,1,P,5,1,30,4321,0,2,403.69999999925494,312,H
2023-04-04T14:13:17Z,usnnjdm9,serial-reaction-time,1,R,5,1,31,4321,0,1,282.19999999925494,121,T
2023-04-04T14:13:17Z,usnnjdm9,serial-reaction-time,1,P,5,1,32,4321,0,1,372.19999999925494,211,H
2023-04-04T14:13:18Z,usnnjdm9,serial-reaction-time,1,R,5,1,33,4321,0,2,410.5,112,L
2023-04-04T14:13:19Z,usnnjdm9,serial-reaction-time,1,P,5,1,34,4321,0,4,393.5,124,H
2023-04-04T14:13:19Z,usnnjdm9,serial-reaction-time,1,R,5,1,35,4321,0,1,272.69999999925494,241,H
2023-04-04T14:13:20Z,usnnjdm9,serial-reaction-time,NA,P,5,1,36,4321,0,3,439,413,H
2023-04-04T14:13:20Z,usnnjdm9,serial-reaction-time,1,P,5,0,36,4321,0,3,583.3000000007451,413,H
2023-04-04T14:13:20Z,usnnjdm9,serial-reaction-time,1,R,5,1,37,4321,0,1,341.19999999925494,131,T
2023-04-04T14:13:21Z,usnnjdm9,serial-reaction-time,1,P,5,1,38,4321,0,2,391.70000000298023,312,H
2023-04-04T14:13:21Z,usnnjdm9,serial-reaction-time,1,R,5,1,39,4321,0,4,441.30000000074506,124,H
2023-04-04T14:13:22Z,usnnjdm9,serial-reaction-time,1,P,5,1,40,4321,0,1,492.19999999925494,241,H
2023-04-04T14:13:22Z,usnnjdm9,serial-reaction-time,1,R,5,1,41,4321,0,3,302.4000000022352,413,H
2023-04-04T14:13:23Z,usnnjdm9,serial-reaction-time,1,P,5,1,42,4321,0,4,367.1000000014901,134,H
2023-04-04T14:13:23Z,usnnjdm9,serial-reaction-time,NA,R,5,1,43,4321,0,2,313.5,342,H
2023-04-04T14:13:24Z,usnnjdm9,serial-reaction-time,1,R,5,0,43,4321,0,2,662.9000000022352,342,H
2023-04-04T14:13:24Z,usnnjdm9,serial-reaction-time,1,P,5,1,44,4321,0,3,351.6000000014901,423,H
2023-04-04T14:13:25Z,usnnjdm9,serial-reaction-time,1,R,5,1,45,4321,0,1,377.80000000074506,231,H
2023-04-04T14:13:25Z,usnnjdm9,serial-reaction-time,1,P,5,1,46,4321,0,2,366.5,312,H
2023-04-04T14:13:26Z,usnnjdm9,serial-reaction-time,1,R,5,1,47,4321,0,2,433.69999999925494,122,L
2023-04-04T14:13:26Z,usnnjdm9,serial-reaction-time,1,P,5,1,48,4321,0,1,427.0999999977648,221,H
2023-04-04T14:13:27Z,usnnjdm9,serial-reaction-time,1,R,5,1,49,4321,0,4,423.30000000074506,214,L
2023-04-04T14:13:27Z,usnnjdm9,serial-reaction-time,1,P,5,1,50,4321,0,4,391.4000000022352,144,H
2023-04-04T14:13:28Z,usnnjdm9,serial-reaction-time,1,R,5,1,51,4321,0,2,351.6000000014901,442,L
2023-04-04T14:13:28Z,usnnjdm9,serial-reaction-time,1,P,5,1,52,4321,0,3,324.19999999925494,423,H
2023-04-04T14:13:29Z,usnnjdm9,serial-reaction-time,NA,R,5,1,53,4321,0,2,394.69999999925494,232,T
2023-04-04T14:13:29Z,usnnjdm9,serial-reaction-time,1,R,5,0,53,4321,0,2,718,232,T
2023-04-04T14:13:30Z,usnnjdm9,serial-reaction-time,1,P,5,1,54,4321,0,2,391.30000000074506,322,H
2023-04-04T14:13:30Z,usnnjdm9,serial-reaction-time,1,R,5,1,55,4321,0,1,308,221,H
2023-04-04T14:13:31Z,usnnjdm9,serial-reaction-time,1,P,5,1,56,4321,0,1,332,211,H
2023-04-04T14:13:31Z,usnnjdm9,serial-reaction-time,1,R,5,1,57,4321,0,2,264.19999999925494,112,L
2023-04-04T14:13:32Z,usnnjdm9,serial-reaction-time,1,P,5,1,58,4321,0,4,367.8999999985099,124,H
2023-04-04T14:13:32Z,usnnjdm9,serial-reaction-time,1,R,5,1,59,4321,0,4,411.19999999925494,244,L
2023-04-04T14:13:33Z,usnnjdm9,serial-reaction-time,1,P,5,1,60,4321,0,3,386.8999999985099,443,H
2023-04-04T14:13:33Z,usnnjdm9,serial-reaction-time,1,R,5,1,61,4321,0,4,321.19999999925494,434,T
2023-04-04T14:13:34Z,usnnjdm9,serial-reaction-time,1,P,5,1,62,4321,0,2,348.1000000014901,342,H
2023-04-04T14:13:34Z,usnnjdm9,serial-reaction-time,1,R,5,1,63,4321,0,3,353.1000000014901,423,H
2023-04-04T14:13:35Z,usnnjdm9,serial-reaction-time,1,P,5,1,64,4321,0,1,353.6000000014901,231,H
2023-04-04T14:13:35Z,usnnjdm9,serial-reaction-time,1,R,5,1,65,4321,0,1,331.6000000014901,311,L
2023-04-04T14:13:36Z,usnnjdm9,serial-reaction-time,1,P,5,1,66,4321,0,4,412.70000000298023,114,H
2023-04-04T14:13:36Z,usnnjdm9,serial-reaction-time,1,R,5,1,67,4321,0,2,392.6000000014901,142,L
2023-04-04T14:13:37Z,usnnjdm9,serial-reaction-time,1,P,5,1,68,4321,0,3,348,423,H
2023-04-04T14:13:37Z,usnnjdm9,serial-reaction-time,1,R,5,1,69,4321,0,2,463.19999999925494,232,T
2023-04-04T14:13:38Z,usnnjdm9,serial-reaction-time,1,P,5,1,70,4321,0,2,446.69999999925494,322,H
2023-04-04T14:13:38Z,usnnjdm9,serial-reaction-time,1,R,5,1,71,4321,0,1,353,221,H
2023-04-04T14:13:39Z,usnnjdm9,serial-reaction-time,1,P,5,1,72,4321,0,1,356.1000000014901,211,H
2023-04-04T14:13:39Z,usnnjdm9,serial-reaction-time,1,R,5,1,73,4321,0,1,300.8999999985099,111,R
2023-04-04T14:13:40Z,usnnjdm9,serial-reaction-time,1,P,5,1,74,4321,0,4,377.5999999977648,114,H
2023-04-04T14:13:40Z,usnnjdm9,serial-reaction-time,1,R,5,1,75,4321,0,4,323.4000000022352,144,H
2023-04-04T14:13:41Z,usnnjdm9,serial-reaction-time,1,P,5,1,76,4321,0,3,398.0999999977648,443,H
2023-04-04T14:13:41Z,usnnjdm9,serial-reaction-time,1,R,5,1,77,4321,0,4,328.6000000014901,434,T
2023-04-04T14:13:42Z,usnnjdm9,serial-reaction-time,NA,P,5,1,78,4321,0,2,326.3999999985099,342,H
2023-04-04T14:13:42Z,usnnjdm9,serial-reaction-time,1,P,5,0,78,4321,0,2,530.7999999970198,342,H
2023-04-04T14:13:42Z,usnnjdm9,serial-reaction-time,NA,R,5,1,79,4321,0,3,310.80000000074506,423,H
2023-04-04T14:13:42Z,usnnjdm9,serial-reaction-time,1,R,5,0,79,4321,0,3,377.5,423,H
2023-04-04T14:13:43Z,usnnjdm9,serial-reaction-time,1,P,5,1,80,4321,0,1,664.9000000022352,231,H
2023-04-04T14:13:48Z,usnnjdm9,html-keyboard-response,NA,NA,NA,NA,NA,NA,NA,NA,NA,NA,NA
2023-04-04T14:13:51Z,usnnjdm9,html-keyboard-response,NA,NA,NA,NA,NA,NA,NA,NA,NA,NA,NA
2023-04-04T14:13:52Z,usnnjdm9,fullscreen,NA,NA,NA,NA,NA,NA,NA,NA,NA,NA,NA
2023-04-04T14:54:46Z,9eprutwa,fullscreen,NA,NA,NA,NA,NA,NA,NA,NA,NA,NA,NA
2023-04-04T14:54:48Z,9eprutwa,html-keyboard-response,NA,NA,NA,NA,NA,NA,NA,NA,NA,NA,NA
2023-04-04T14:54:50Z,9eprutwa,serial-reaction-time,1,R,1,1,1,2413,0,3,389.5,3,X
2023-04-04T14:54:50Z,9eprutwa,serial-reaction-time,NA,P,1,1,2,2413,0,2,341.5,32,X
2023-04-04T14:54:50Z,9eprutwa,serial-reaction-time,1,P,1,0,2,2413,0,2,374.80000000074506,32,X
2023-04-04T14:54:51Z,9eprutwa,serial-reaction-time,NA,R,1,1,3,2413,0,3,81.70000000298023,323,T
2023-04-04T14:54:51Z,9eprutwa,serial-reaction-time,1,R,1,0,3,2413,0,3,337.70000000298023,323,T
2023-04-04T14:54:51Z,9eprutwa,serial-reaction-time,1,P,1,1,4,2413,0,4,342.9000000022352,234,H
2023-04-04T14:54:52Z,9eprutwa,serial-reaction-time,1,R,1,1,5,2413,0,3,304.69999999925494,343,T
2023-04-04T14:54:52Z,9eprutwa,serial-reaction-time,1,P,1,1,6,2413,0,1,337.19999999925494,431,H
2023-04-04T14:54:53Z,9eprutwa,serial-reaction-time,1,R,1,1,7,2413,0,4,368.6000000014901,314,L
2023-04-04T14:54:53Z,9eprutwa,serial-reaction-time,1,P,1,1,8,2413,0,3,312,143,H
2023-04-04T14:54:54Z,9eprutwa,serial-reaction-time,1,R,1,1,9,2413,0,1,350.8999999985099,431,H
2023-04-04T14:54:54Z,9eprutwa,serial-reaction-time,1,P,1,1,10,2413,0,2,348.70000000298023,312,H
2023-04-04T14:54:55Z,9eprutwa,serial-reaction-time,1,R,1,1,11,2413,0,3,297.0999999977648,123,H
2023-04-04T14:54:55Z,9eprutwa,serial-reaction-time,1,P,1,1,12,2413,0,4,299.8999999985099,234,H
2023-04-04T14:54:56Z,9eprutwa,serial-reaction-time,NA,R,1,1,13,2413,0,4,356,344,L
2023-04-04T14:54:56Z,9eprutwa,serial-reaction-time,1,R,1,0,13,2413,0,4,427.79999999701977,344,L
2023-04-04T14:54:56Z,9eprutwa,serial-reaction-time,1,P,1,1,14,2413,0,1,363,441,H
2023-04-04T14:54:57Z,9eprutwa,serial-reaction-time,NA,R,1,1,15,2413,0,4,344.80000000074506,414,T
2023-04-04T14:54:57Z,9eprutwa,serial-reaction-time,1,R,1,0,15,2413,0,4,389.3999999985099,414,T
2023-04-04T14:54:57Z,9eprutwa,serial-reaction-time,1,P,1,1,16,2413,0,3,315.5,143,H
2023-04-04T14:54:58Z,9eprutwa,serial-reaction-time,1,R,1,1,17,2413,0,2,339.6000000014901,432,L
2023-04-04T14:54:58Z,9eprutwa,serial-reaction-time,1,P,1,1,18,2413,0,2,308.3999999985099,322,H
2023-04-04T14:54:58Z,9eprutwa,serial-reaction-time,1,R,1,1,19,2413,0,2,319,222,R
2023-04-04T14:54:59Z,9eprutwa,serial-reaction-time,1,P,1,1,20,2413,0,4,321.5,224,H
2023-04-04T14:54:59Z,9eprutwa,serial-reaction-time,1,R,1,1,21,2413,0,3,322,243,L
2023-04-04T14:55:00Z,9eprutwa,serial-reaction-time,1,P,1,1,22,2413,0,1,340.30000000074506,431,H
2023-04-04T14:55:00Z,9eprutwa,serial-reaction-time,1,R,1,1,23,2413,0,3,335.0999999977648,313,T
2023-04-04T14:55:01Z,9eprutwa,serial-reaction-time,1,P,1,1,24,2413,0,3,303,133,H
2023-04-04T14:55:01Z,9eprutwa,serial-reaction-time,1,R,1,1,25,2413,0,4,308.19999999925494,334,L
2023-04-04T14:55:02Z,9eprutwa,serial-reaction-time,1,P,1,1,26,2413,0,2,358.5,342,H
2023-04-04T14:55:02Z,9eprutwa,serial-reaction-time,NA,R,1,1,27,2413,0,3,269.5,423,L
2023-04-04T14:55:02Z,9eprutwa,serial-reaction-time,1,R,1,0,27,2413,0,3,532.6999999992549,423,L
2023-04-04T14:55:03Z,9eprutwa,serial-reaction-time,1,P,1,1,28,2413,0,4,316.0999999977648,234,H
2023-04-04T14:55:03Z,9eprutwa,serial-reaction-time,1,R,1,1,29,2413,0,4,321.4000000022352,344,L
2023-04-04T14:55:04Z,9eprutwa,serial-reaction-time,1,P,1,1,30,2413,0,1,342,441,H
2023-04-04T14:55:04Z,9eprutwa,serial-reaction-time,1,R,1,1,31,2413,0,2,381.8999999985099,412,L
2023-04-04T14:55:05Z,9eprutwa,serial-reaction-time,1,P,1,1,32,2413,0,3,350.19999999925494,123,H
2023-04-04T14:55:05Z,9eprutwa,serial-reaction-time,1,R,1,1,33,2413,0,2,460.80000000074506,232,T
2023-04-04T14:55:06Z,9eprutwa,serial-reaction-time,1,P,1,1,34,2413,0,2,334.6000000014901,322,H
2023-04-04T14:55:06Z,9eprutwa,serial-reaction-time,1,R,1,1,35,2413,0,3,399.5,223,L
2023-04-04T14:55:07Z,9eprutwa,serial-reaction-time,1,P,1,1,36,2413,0,4,346,234,H
2023-04-04T14:55:07Z,9eprutwa,serial-reaction-time,1,R,1,1,37,2413,0,1,355.5,341,L
2023-04-04T14:55:08Z,9eprutwa,serial-reaction-time,1,P,1,1,38,2413,0,1,320.69999999925494,411,H
2023-04-04T14:55:08Z,9eprutwa,serial-reaction-time,1,R,1,1,39,2413,0,4,363.5,114,L
2023-04-04T14:55:09Z,9eprutwa,serial-reaction-time,1,P,1,1,40,2413,0,3,346.30000000074506,143,H
2023-04-04T14:55:09Z,9eprutwa,serial-reaction-time,1,R,1,1,41,2413,0,2,382.5,432,L
2023-04-04T14:55:10Z,9eprutwa,serial-reaction-time,1,P,1,1,42,2413,0,2,296.0999999977648,322,H
2023-04-04T14:55:10Z,9eprutwa,serial-reaction-time,1,R,1,1,43,2413,0,2,345.6000000014901,222,R
2023-04-04T14:55:11Z,9eprutwa,serial-reaction-time,1,P,1,1,44,2413,0,4,359.80000000074506,224,H
2023-04-04T14:55:11Z,9eprutwa,serial-reaction-time,1,R,1,1,45,2413,0,1,359,241,L
2023-04-04T14:55:12Z,9eprutwa,serial-reaction-time,1,P,1,1,46,2413,0,1,324.3999999985099,411,H
2023-04-04T14:55:12Z,9eprutwa,serial-reaction-time,1,R,1,1,47,2413,0,3,365.8999999985099,113,H
2023-04-04T14:55:13Z,9eprutwa,serial-reaction-time,1,P,1,1,48,2413,0,3,327,133,H
2023-04-04T14:55:13Z,9eprutwa,serial-reaction-time,1,R,1,1,49,2413,0,1,369.6000000014901,331,L
2023-04-04T14:55:14Z,9eprutwa,serial-reaction-time,NA,P,1,1,50,2413,0,2,342.69999999925494,312,H
2023-04-04T14:55:14Z,9eprutwa,serial-reaction-time,1,P,1,0,50,2413,0,2,670.3999999985099,312,H
2023-04-04T14:55:14Z,9eprutwa,serial-reaction-time,NA,R,1,1,51,2413,0,1,360.79999999701977,121,T
2023-04-04T14:55:15Z,9eprutwa,serial-reaction-time,1,R,1,0,51,2413,0,1,617.3999999985099,121,T
2023-04-04T14:55:15Z,9eprutwa,serial-reaction-time,1,P,1,1,52,2413,0,4,339.80000000074506,214,H
2023-04-04T14:55:16Z,9eprutwa,serial-reaction-time,1,R,1,1,53,2413,0,3,347.19999999925494,143,H
2023-04-04T14:55:16Z,9eprutwa,serial-reaction-time,1,P,1,1,54,2413,0,1,331.69999999925494,431,H
2023-04-04T14:55:17Z,9eprutwa,serial-reaction-time,1,R,1,1,55,2413,0,1,334.69999999925494,311,L
2023-04-04T14:55:17Z,9eprutwa,serial-reaction-time,1,P,1,1,56,2413,0,3,338.1000000014901,113,H
2023-04-04T14:55:18Z,9eprutwa,serial-reaction-time,1,R,1,1,57,2413,0,1,328.69999999925494,131,T
2023-04-04T14:55:18Z,9eprutwa,serial-reaction-time,NA,P,1,1,58,2413,0,2,364.79999999701977,312,H
2023-04-04T14:55:18Z,9eprutwa,serial-reaction-time,1,P,1,0,58,2413,0,2,626.8999999985099,312,H
2023-04-04T14:55:19Z,9eprutwa,serial-reaction-time,1,R,1,1,59,2413,0,4,366.4000000022352,124,L
2023-04-04T14:55:19Z,9eprutwa,serial-reaction-time,1,P,1,1,60,2413,0,4,285.6000000014901,244,H
2023-04-04T14:55:20Z,9eprutwa,serial-reaction-time,NA,R,1,1,61,2413,0,2,359.79999999701977,442,L
2023-04-04T14:55:20Z,9eprutwa,serial-reaction-time,1,R,1,0,61,2413,0,2,697.1999999955297,442,L
2023-04-04T14:55:21Z,9eprutwa,serial-reaction-time,1,P,1,1,62,2413,0,1,304.69999999925494,421,H
2023-04-04T14:55:21Z,9eprutwa,serial-reaction-time,1,R,1,1,63,2413,0,1,338.30000000074506,211,L
2023-04-04T14:55:21Z,9eprutwa,serial-reaction-time,1,P,1,1,64,2413,0,3,312,113,H
2023-04-04T14:55:22Z,9eprutwa,serial-reaction-time,1,R,1,1,65,2413,0,3,306,133,H
2023-04-04T14:55:22Z,9eprutwa,serial-reaction-time,1,P,1,1,66,2413,0,2,405.6000000014901,332,H
2023-04-04T14:55:23Z,9eprutwa,serial-reaction-time,1,R,1,1,67,2413,0,1,375.80000000074506,321,L
2023-04-04T14:55:23Z,9eprutwa,serial-reaction-time,NA,P,1,1,68,2413,0,4,366.8999999985099,214,H
2023-04-04T14:55:23Z,9eprutwa,serial-reaction-time,1,P,1,0,68,2413,0,4,403.5999999977648,214,H
2023-04-04T14:55:24Z,9eprutwa,serial-reaction-time,1,R,1,1,69,2413,0,2,493.79999999701977,142,L
2023-04-04T14:55:25Z,9eprutwa,serial-reaction-time,1,P,1,1,70,2413,0,1,326.1000000014901,421,H
2023-04-04T14:55:25Z,9eprutwa,serial-reaction-time,1,R,1,1,71,2413,0,1,332.30000000074506,211,L
2023-04-04T14:55:26Z,9eprutwa,serial-reaction-time,1,P,1,1,72,2413,0,3,360.8999999985099,113,H
2023-04-04T14:55:26Z,9eprutwa,serial-reaction-time,1,R,1,1,73,2413,0,2,466.69999999925494,132,L
2023-04-04T14:55:27Z,9eprutwa,serial-reaction-time,1,P,1,1,74,2413,0,2,345.5,322,H
2023-04-04T14:55:27Z,9eprutwa,serial-reaction-time,1,R,1,1,75,2413,0,4,355.1000000014901,224,H
2023-04-04T14:55:28Z,9eprutwa,serial-reaction-time,1,P,1,1,76,2413,0,4,351.6000000014901,244,H
2023-04-04T14:55:28Z,9eprutwa,serial-reaction-time,1,R,1,1,77,2413,0,4,329.80000000074506,444,R
2023-04-04T14:55:29Z,9eprutwa,serial-reaction-time,1,P,1,1,78,2413,0,1,347.20000000298023,441,H
2023-04-04T14:55:29Z,9eprutwa,serial-reaction-time,1,R,1,1,79,2413,0,3,364,413,L
2023-04-04T14:55:30Z,9eprutwa,serial-reaction-time,1,P,1,1,80,2413,0,3,307.8999999985099,133,H
2023-04-04T14:55:35Z,9eprutwa,html-keyboard-response,NA,NA,NA,NA,NA,NA,NA,NA,NA,NA,NA
2023-04-04T14:55:35Z,9eprutwa,html-keyboard-response,NA,NA,NA,NA,NA,NA,NA,NA,NA,NA,NA
2023-04-04T14:55:37Z,9eprutwa,serial-reaction-time,1,R,2,1,1,2413,0,4,345.69999999925494,4,X
2023-04-04T14:55:37Z,9eprutwa,serial-reaction-time,1,P,2,1,2,2413,0,2,273.69999999925494,42,X
2023-04-04T14:55:37Z,9eprutwa,serial-reaction-time,NA,R,2,1,3,2413,0,1,323.80000000074506,421,H
2023-04-04T14:55:38Z,9eprutwa,serial-reaction-time,1,R,2,0,3,2413,0,1,566.4000000022352,421,H
2023-04-04T14:55:38Z,9eprutwa,serial-reaction-time,1,P,2,1,4,2413,0,4,350.69999999925494,214,H
2023-04-04T14:55:39Z,9eprutwa,serial-reaction-time,1,R,2,1,5,2413,0,1,330.80000000074506,141,T
2023-04-04T14:55:39Z,9eprutwa,serial-reaction-time,1,P,2,1,6,2413,0,1,262.8999999985099,411,H
2023-04-04T14:55:39Z,9eprutwa,serial-reaction-time,NA,R,2,1,7,2413,0,2,322.19999999925494,112,L
2023-04-04T14:55:40Z,9eprutwa,serial-reaction-time,1,R,2,0,7,2413,0,2,526.8000000007451,112,L
2023-04-04T14:55:40Z,9eprutwa,serial-reaction-time,1,P,2,1,8,2413,0,3,357.69999999925494,123,H
2023-04-04T14:55:41Z,9eprutwa,serial-reaction-time,1,R,2,1,9,2413,0,3,308.9000000022352,233,L
2023-04-04T14:55:41Z,9eprutwa,serial-reaction-time,1,P,2,1,10,2413,0,2,399.30000000074506,332,H
2023-04-04T14:55:42Z,9eprutwa,serial-reaction-time,1,R,2,1,11,2413,0,3,401.30000000074506,323,T
2023-04-04T14:55:42Z,9eprutwa,serial-reaction-time,1,P,2,1,12,2413,0,4,331.1000000014901,234,H
2023-04-04T14:55:43Z,9eprutwa,serial-reaction-time,1,R,2,1,13,2413,0,3,421.19999999925494,343,T
2023-04-04T14:55:43Z,9eprutwa,serial-reaction-time,1,P,2,1,14,2413,0,1,350.8999999985099,431,H
2023-04-04T14:55:44Z,9eprutwa,serial-reaction-time,1,R,2,1,15,2413,0,1,306.3999999985099,311,L
2023-04-04T14:55:44Z,9eprutwa,serial-reaction-time,1,P,2,1,16,2413,0,3,300.9000000022352,113,H
2023-04-04T14:55:45Z,9eprutwa,serial-reaction-time,1,R,2,1,17,2413,0,1,444.1000000014901,131,T
2023-04-04T14:55:45Z,9eprutwa,serial-reaction-time,NA,P,2,1,18,2413,0,2,341.1000000014901,312,H
2023-04-04T14:55:46Z,9eprutwa,serial-reaction-time,1,P,2,0,18,2413,0,2,651.5000000037253,312,H
2023-04-04T14:55:46Z,9eprutwa,serial-reaction-time,1,R,2,1,19,2413,0,4,340.3999999985099,124,L
2023-04-04T14:55:46Z,9eprutwa,serial-reaction-time,1,P,2,1,20,2413,0,4,298.3999999985099,244,H
2023-04-04T14:55:47Z,9eprutwa,serial-reaction-time,1,R,2,1,21,2413,0,3,461,443,L
2023-04-04T14:55:48Z,9eprutwa,serial-reaction-time,1,P,2,1,22,2413,0,1,358.30000000074506,431,H
2023-04-04T14:55:48Z,9eprutwa,serial-reaction-time,1,R,2,1,23,2413,0,1,303.69999999925494,311,L
2023-04-04T14:55:48Z,9eprutwa,serial-reaction-time,1,P,2,1,24,2413,0,3,328.19999999925494,113,H
2023-04-04T14:55:49Z,9eprutwa,serial-reaction-time,NA,R,2,1,25,2413,0,1,341.30000000074506,131,T
2023-04-04T14:55:49Z,9eprutwa,serial-reaction-time,1,R,2,0,25,2413,0,1,363.6000000014901,131,T
2023-04-04T14:55:49Z,9eprutwa,serial-reaction-time,1,P,2,1,26,2413,0,2,429.0999999977648,312,H
2023-04-04T14:55:50Z,9eprutwa,serial-reaction-time,1,R,2,1,27,2413,0,1,382.69999999925494,121,T
2023-04-04T14:55:51Z,9eprutwa,serial-reaction-time,1,P,2,1,28,2413,0,4,435.3999999985099,214,H
2023-04-04T14:55:51Z,9eprutwa,serial-reaction-time,1,R,2,1,29,2413,0,2,322.1000000014901,142,L
2023-04-04T14:55:52Z,9eprutwa,serial-reaction-time,1,P,2,1,30,2413,0,1,405.19999999925494,421,H
2023-04-04T14:55:52Z,9eprutwa,serial-reaction-time,1,R,2,1,31,2413,0,3,334.8999999985099,213,L
2023-04-04T14:55:52Z,9eprutwa,serial-reaction-time,1,P,2,1,32,2413,0,3,295.1000000014901,133,H
2023-04-04T14:55:53Z,9eprutwa,serial-reaction-time,1,R,2,1,33,2413,0,1,288.29999999701977,331,L
2023-04-04T14:55:53Z,9eprutwa,serial-reaction-time,1,P,2,1,34,2413,0,2,329.4000000022352,312,H
2023-04-04T14:55:54Z,9eprutwa,serial-reaction-time,1,R,2,1,35,2413,0,3,363.79999999701977,123,H
2023-04-04T14:55:54Z,9eprutwa,serial-reaction-time,1,P,2,1,36,2413,0,4,313.3999999985099,234,H
2023-04-04T14:55:55Z,9eprutwa,serial-reaction-time,1,R,2,1,37,2413,0,1,344.19999999925494,341,L
2023-04-04T14:55:55Z,9eprutwa,serial-reaction-time,1,P,2,1,38,2413,0,1,287.9000000022352,411,H
2023-04-04T14:55:56Z,9eprutwa,serial-reaction-time,1,R,2,1,39,2413,0,3,346.3999999985099,113,H
2023-04-04T14:55:56Z,9eprutwa,serial-reaction-time,1,P,2,1,40,2413,0,3,308.1000000014901,133,H
2023-04-04T14:55:57Z,9eprutwa,serial-reaction-time,1,R,2,1,41,2413,0,4,354.80000000074506,334,L
2023-04-04T14:55:57Z,9eprutwa,serial-reaction-time,1,P,2,1,42,2413,0,2,332.19999999925494,342,H
2023-04-04T14:55:58Z,9eprutwa,serial-reaction-time,1,R,2,1,43,2413,0,2,311,422,L
2023-04-04T14:55:58Z,9eprutwa,serial-reaction-time,1,P,2,1,44,2413,0,4,344.19999999925494,224,H
2023-04-04T14:55:59Z,9eprutwa,serial-reaction-time,1,R,2,1,45,2413,0,3,480.19999999925494,243,L
2023-04-04T14:55:59Z,9eprutwa,serial-reaction-time,1,P,2,1,46,2413,0,1,356.79999999701977,431,H
2023-04-04T14:56:00Z,9eprutwa,serial-reaction-time,1,R,2,1,47,2413,0,3,327.80000000074506,313,T
2023-04-04T14:56:00Z,9eprutwa,serial-reaction-time,1,P,2,1,48,2413,0,3,293.80000000074506,133,H
2023-04-04T14:56:01Z,9eprutwa,serial-reaction-time,1,R,2,1,49,2413,0,4,351.79999999701977,334,L
2023-04-04T14:56:01Z,9eprutwa,serial-reaction-time,1,P,2,1,50,2413,0,2,346.30000000074506,342,H
2023-04-04T14:56:02Z,9eprutwa,serial-reaction-time,1,R,2,1,51,2413,0,3,441.1000000014901,423,L
2023-04-04T14:56:02Z,9eprutwa,serial-reaction-time,1,P,2,1,52,2413,0,4,484.19999999925494,234,H
2023-04-04T14:56:03Z,9eprutwa,serial-reaction-time,1,R,2,1,53,2413,0,2,414.1000000014901,342,H
2023-04-04T14:56:03Z,9eprutwa,serial-reaction-time,1,P,2,1,54,2413,0,1,394.3999999985099,421,H
2023-04-04T14:56:04Z,9eprutwa,serial-reaction-time,1,R,2,1,55,2413,0,2,387.5,212,T
2023-04-04T14:56:04Z,9eprutwa,serial-reaction-time,NA,P,2,1,56,2413,0,3,328.4000000022352,123,H
2023-04-04T14:56:05Z,9eprutwa,serial-reaction-time,1,P,2,0,56,2413,0,3,639.2000000029802,123,H
2023-04-04T14:56:05Z,9eprutwa,serial-reaction-time,1,R,2,1,57,2413,0,2,479,232,T
2023-04-04T14:56:06Z,9eprutwa,serial-reaction-time,1,P,2,1,58,2413,0,2,300.80000000074506,322,H
2023-04-04T14:56:06Z,9eprutwa,serial-reaction-time,1,R,2,1,59,2413,0,1,321.6000000014901,221,L
2023-04-04T14:56:07Z,9eprutwa,serial-reaction-time,NA,P,2,1,60,2413,0,4,364.5,214,H
2023-04-04T14:56:07Z,9eprutwa,serial-reaction-time,1,P,2,0,60,2413,0,4,706.1000000014901,214,H
2023-04-04T14:56:07Z,9eprutwa,serial-reaction-time,1,R,2,1,61,2413,0,4,323.1000000014901,144,L
2023-04-04T14:56:08Z,9eprutwa,serial-reaction-time,1,P,2,1,62,2413,0,1,339.69999999925494,441,H
2023-04-04T14:56:08Z,9eprutwa,serial-reaction-time,1,R,2,1,63,2413,0,4,372.4000000022352,414,T
2023-04-04T14:56:09Z,9eprutwa,serial-reaction-time,NA,P,2,1,64,2413,0,3,366.4000000022352,143,H
2023-04-04T14:56:09Z,9eprutwa,serial-reaction-time,1,P,2,0,64,2413,0,3,510.9000000022352,143,H
2023-04-04T14:56:10Z,9eprutwa,serial-reaction-time,1,R,2,1,65,2413,0,3,357,433,L
2023-04-04T14:56:10Z,9eprutwa,serial-reaction-time,1,P,2,1,66,2413,0,2,355.19999999925494,332,H
2023-04-04T14:56:11Z,9eprutwa,serial-reaction-time,1,R,2,1,67,2413,0,3,374.80000000074506,323,T
2023-04-04T14:56:11Z,9eprutwa,serial-reaction-time,1,P,2,1,68,2413,0,4,397.3999999985099,234,H
2023-04-04T14:56:12Z,9eprutwa,serial-reaction-time,1,R,2,1,69,2413,0,4,336.69999999925494,344,L
2023-04-04T14:56:12Z,9eprutwa,serial-reaction-time,NA,P,2,1,70,2413,0,1,329.19999999925494,441,H
2023-04-04T14:56:12Z,9eprutwa,serial-reaction-time,1,P,2,0,70,2413,0,1,700.6999999992549,441,H
2023-04-04T14:56:13Z,9eprutwa,serial-reaction-time,1,R,2,1,71,2413,0,1,287.0999999977648,411,H
2023-04-04T14:56:13Z,9eprutwa,serial-reaction-time,1,P,2,1,72,2413,0,3,301.80000000074506,113,H
2023-04-04T14:56:14Z,9eprutwa,serial-reaction-time,1,R,2,1,73,2413,0,2,430.79999999701977,132,L
2023-04-04T14:56:14Z,9eprutwa,serial-reaction-time,1,P,2,1,74,2413,0,2,380.69999999925494,322,H
2023-04-04T14:56:15Z,9eprutwa,serial-reaction-time,1,R,2,1,75,2413,0,2,278.69999999925494,222,R
2023-04-04T14:56:15Z,9eprutwa,serial-reaction-time,1,P,2,1,76,2413,0,4,357.19999999925494,224,H
2023-04-04T14:56:16Z,9eprutwa,serial-reaction-time,NA,R,2,1,77,2413,0,3,245.29999999701977,243,L
2023-04-04T14:56:16Z,9eprutwa,serial-reaction-time,1,R,2,0,77,2413,0,3,511.09999999403954,243,L
2023-04-04T14:56:16Z,9eprutwa,serial-reaction-time,1,P,2,1,78,2413,0,1,402.69999999925494,431,H
2023-04-04T14:56:17Z,9eprutwa,serial-reaction-time,1,R,2,1,79,2413,0,1,247.30000000074503,311,L
2023-04-04T14:56:17Z,9eprutwa,serial-reaction-time,1,P,2,1,80,2413,0,3,300,113,H
2023-04-04T14:56:22Z,9eprutwa,html-keyboard-response,NA,NA,NA,NA,NA,NA,NA,NA,NA,NA,NA
2023-04-04T14:56:23Z,9eprutwa,html-keyboard-response,NA,NA,NA,NA,NA,NA,NA,NA,NA,NA,NA
2023-04-04T14:56:24Z,9eprutwa,serial-reaction-time,NA,R,3,1,1,2413,0,2,352.30000000074506,2,X
2023-04-04T14:56:25Z,9eprutwa,serial-reaction-time,1,R,3,0,1,2413,0,2,575.1999999992549,2,X
2023-04-04T14:56:25Z,9eprutwa,serial-reaction-time,1,P,3,1,2,2413,0,2,292.5,22,X
2023-04-04T14:56:25Z,9eprutwa,serial-reaction-time,1,R,3,1,3,2413,0,1,306.69999999925494,221,L
2023-04-04T14:56:26Z,9eprutwa,serial-reaction-time,1,P,3,1,4,2413,0,4,334.5,214,H
2023-04-04T14:56:26Z,9eprutwa,serial-reaction-time,1,R,3,1,5,2413,0,2,363.30000000074506,142,L
2023-04-04T14:56:27Z,9eprutwa,serial-reaction-time,1,P,3,1,6,2413,0,1,320.5,421,H
2023-04-04T14:56:27Z,9eprutwa,serial-reaction-time,1,R,3,1,7,2413,0,4,362.6000000014901,214,H
2023-04-04T14:56:28Z,9eprutwa,serial-reaction-time,1,P,3,1,8,2413,0,3,300.6000000014901,143,H
2023-04-04T14:56:28Z,9eprutwa,serial-reaction-time,1,R,3,1,9,2413,0,1,315.6000000014901,431,H
2023-04-04T14:56:29Z,9eprutwa,serial-reaction-time,1,P,3,1,10,2413,0,2,445.19999999925494,312,H
2023-04-04T14:56:29Z,9eprutwa,serial-reaction-time,1,R,3,1,11,2413,0,2,306.6000000014901,122,L
2023-04-04T14:56:30Z,9eprutwa,serial-reaction-time,1,P,3,1,12,2413,0,4,342.5,224,H
2023-04-04T14:56:30Z,9eprutwa,serial-reaction-time,1,R,3,1,13,2413,0,4,315.4000000022352,244,H
2023-04-04T14:56:31Z,9eprutwa,serial-reaction-time,1,P,3,1,14,2413,0,1,351.6000000014901,441,H
2023-04-04T14:56:31Z,9eprutwa,serial-reaction-time,1,R,3,1,15,2413,0,3,374.69999999925494,413,L
2023-04-04T14:56:32Z,9eprutwa,serial-reaction-time,1,P,3,1,16,2413,0,3,316.79999999701977,133,H
2023-04-04T14:56:32Z,9eprutwa,serial-reaction-time,1,R,3,1,17,2413,0,3,336.69999999925494,333,R
2023-04-04T14:56:33Z,9eprutwa,serial-reaction-time,1,P,3,1,18,2413,0,2,444.69999999925494,332,H
2023-04-04T14:56:33Z,9eprutwa,serial-reaction-time,1,R,3,1,19,2413,0,4,340.30000000074506,324,L
2023-04-04T14:56:34Z,9eprutwa,serial-reaction-time,1,P,3,1,20,2413,0,4,340.4000000022352,244,H
2023-04-04T14:56:34Z,9eprutwa,serial-reaction-time,1,R,3,1,21,2413,0,3,386.19999999925494,443,L
2023-04-04T14:56:35Z,9eprutwa,serial-reaction-time,1,P,3,1,22,2413,0,1,529.8999999985099,431,H
2023-04-04T14:56:35Z,9eprutwa,serial-reaction-time,1,R,3,1,23,2413,0,1,299.19999999925494,311,L
2023-04-04T14:56:36Z,9eprutwa,serial-reaction-time,1,P,3,1,24,2413,0,3,332.5,113,H
2023-04-04T14:56:36Z,9eprutwa,serial-reaction-time,1,R,3,1,25,2413,0,2,373,132,L
2023-04-04T14:56:37Z,9eprutwa,serial-reaction-time,1,P,3,1,26,2413,0,2,331.79999999701977,322,H
2023-04-04T14:56:37Z,9eprutwa,serial-reaction-time,1,R,3,1,27,2413,0,2,331.5999999977648,222,R
2023-04-04T14:56:38Z,9eprutwa,serial-reaction-time,1,P,3,1,28,2413,0,4,366.6000000014901,224,H
2023-04-04T14:56:38Z,9eprutwa,serial-reaction-time,1,R,3,1,29,2413,0,4,340.80000000074506,244,H
2023-04-04T14:56:39Z,9eprutwa,serial-reaction-time,1,P,3,1,30,2413,0,1,391.19999999925494,441,H
2023-04-04T14:56:39Z,9eprutwa,serial-reaction-time,1,R,3,1,31,2413,0,4,441.5,414,T
2023-04-04T14:56:40Z,9eprutwa,serial-reaction-time,1,P,3,1,32,2413,0,3,351.6000000014901,143,H
2023-04-04T14:56:40Z,9eprutwa,serial-reaction-time,1,R,3,1,33,2413,0,3,401,433,L
2023-04-04T14:56:41Z,9eprutwa,serial-reaction-time,1,P,3,1,34,2413,0,2,439.69999999925494,332,H
2023-04-04T14:56:41Z,9eprutwa,serial-reaction-time,1,R,3,1,35,2413,0,3,415.69999999925494,323,T
2023-04-04T14:56:42Z,9eprutwa,serial-reaction-time,1,P,3,1,36,2413,0,4,369.80000000074506,234,H
2023-04-04T14:56:42Z,9eprutwa,serial-reaction-time,1,R,3,1,37,2413,0,4,335.69999999925494,344,L
2023-04-04T14:56:43Z,9eprutwa,serial-reaction-time,1,P,3,1,38,2413,0,1,445.1000000014901,441,H
2023-04-04T14:56:44Z,9eprutwa,serial-reaction-time,1,R,3,1,39,2413,0,1,356.80000000074506,411,H
2023-04-04T14:56:44Z,9eprutwa,serial-reaction-time,1,P,3,1,40,2413,0,3,362.80000000074506,113,H
2023-04-04T14:56:45Z,9eprutwa,serial-reaction-time,1,R,3,1,41,2413,0,4,355.80000000074506,134,L
2023-04-04T14:56:45Z,9eprutwa,serial-reaction-time,1,P,3,1,42,2413,0,2,361.1000000014901,342,H
2023-04-04T14:56:46Z,9eprutwa,serial-reaction-time,1,R,3,1,43,2413,0,4,408.19999999925494,424,T
2023-04-04T14:56:46Z,9eprutwa,serial-reaction-time,1,P,3,1,44,2413,0,4,353.19999999925494,244,H
2023-04-04T14:56:47Z,9eprutwa,serial-reaction-time,1,R,3,1,45,2413,0,4,349.69999999925494,444,R
2023-04-04T14:56:47Z,9eprutwa,serial-reaction-time,1,P,3,1,46,2413,0,1,419.5999999977648,441,H
2023-04-04T14:56:48Z,9eprutwa,serial-reaction-time,1,R,3,1,47,2413,0,1,371.8999999985099,411,H
2023-04-04T14:56:48Z,9eprutwa,serial-reaction-time,1,P,3,1,48,2413,0,3,372.1000000014901,113,H
2023-04-04T14:56:49Z,9eprutwa,serial-reaction-time,1,R,3,1,49,2413,0,4,382.6000000014901,134,L
2023-04-04T14:56:49Z,9eprutwa,serial-reaction-time,1,P,3,1,50,2413,0,2,386.8999999985099,342,H
2023-04-04T14:56:50Z,9eprutwa,serial-reaction-time,1,R,3,1,51,2413,0,3,386.1000000014901,423,L
2023-04-04T14:56:50Z,9eprutwa,serial-reaction-time,1,P,3,1,52,2413,0,4,407.4000000022352,234,H
2023-04-04T14:56:51Z,9eprutwa,serial-reaction-time,1,R,3,1,53,2413,0,2,346,342,H
2023-04-04T14:56:51Z,9eprutwa,serial-reaction-time,1,P,3,1,54,2413,0,1,484.19999999925494,421,H
2023-04-04T14:56:52Z,9eprutwa,serial-reaction-time,1,R,3,1,55,2413,0,2,501.29999999701977,212,T
2023-04-04T14:56:52Z,9eprutwa,serial-reaction-time,1,P,3,1,56,2413,0,3,325.29999999701977,123,H
2023-04-04T14:56:53Z,9eprutwa,serial-reaction-time,1,R,3,1,57,2413,0,4,338.19999999925494,234,H
2023-04-04T14:56:53Z,9eprutwa,serial-reaction-time,1,P,3,1,58,2413,0,2,352.70000000298023,342,H
2023-04-04T14:56:54Z,9eprutwa,serial-reaction-time,1,R,3,1,59,2413,0,2,316.69999999925494,422,L
2023-04-04T14:56:54Z,9eprutwa,serial-reaction-time,1,P,3,1,60,2413,0,4,482.1000000014901,224,H
2023-04-04T14:56:55Z,9eprutwa,serial-reaction-time,1,R,3,1,61,2413,0,1,382.5999999977648,241,L
2023-04-04T14:56:55Z,9eprutwa,serial-reaction-time,1,P,3,1,62,2413,0,1,352,411,H
2023-04-04T14:56:56Z,9eprutwa,serial-reaction-time,1,R,3,1,63,2413,0,3,361.4000000022352,113,H
2023-04-04T14:56:56Z,9eprutwa,serial-reaction-time,1,P,3,1,64,2413,0,3,322.30000000074506,133,H
2023-04-04T14:56:57Z,9eprutwa,serial-reaction-time,1,R,3,1,65,2413,0,4,347.69999999925494,334,L
2023-04-04T14:56:57Z,9eprutwa,serial-reaction-time,1,P,3,1,66,2413,0,2,324,342,H
2023-04-04T14:56:58Z,9eprutwa,serial-reaction-time,1,R,3,1,67,2413,0,4,391.8999999985099,424,T
2023-04-04T14:56:58Z,9eprutwa,serial-reaction-time,1,P,3,1,68,2413,0,4,357.9000000022352,244,H
2023-04-04T14:56:59Z,9eprutwa,serial-reaction-time,1,R,3,1,69,2413,0,4,414.4000000022352,444,R
2023-04-04T14:56:59Z,9eprutwa,serial-reaction-time,1,P,3,1,70,2413,0,1,385.5,441,H
2023-04-04T14:57:00Z,9eprutwa,serial-reaction-time,1,R,3,1,71,2413,0,2,408.19999999925494,412,L
2023-04-04T14:57:00Z,9eprutwa,serial-reaction-time,1,P,3,1,72,2413,0,3,353.19999999925494,123,H
2023-04-04T14:57:01Z,9eprutwa,serial-reaction-time,1,R,3,1,73,2413,0,4,332.5,234,H
2023-04-04T14:57:01Z,9eprutwa,serial-reaction-time,1,P,3,1,74,2413,0,2,387.8999999985099,342,H
2023-04-04T14:57:02Z,9eprutwa,serial-reaction-time,1,R,3,1,75,2413,0,1,395.5,421,H
2023-04-04T14:57:03Z,9eprutwa,serial-reaction-time,1,P,3,1,76,2413,0,4,470.5,214,H
2023-04-04T14:57:03Z,9eprutwa,serial-reaction-time,NA,R,3,1,77,2413,0,1,388.5,141,T
2023-04-04T14:57:03Z,9eprutwa,serial-reaction-time,1,R,3,0,77,2413,0,1,462.3999999985099,141,T
2023-04-04T14:57:04Z,9eprutwa,serial-reaction-time,1,P,3,1,78,2413,0,1,420.1000000014901,411,H
2023-04-04T14:57:04Z,9eprutwa,serial-reaction-time,1,R,3,1,79,2413,0,3,368.6000000014901,113,H
2023-04-04T14:57:05Z,9eprutwa,serial-reaction-time,1,P,3,1,80,2413,0,3,317,133,H
2023-04-04T14:57:10Z,9eprutwa,html-keyboard-response,NA,NA,NA,NA,NA,NA,NA,NA,NA,NA,NA
2023-04-04T14:57:10Z,9eprutwa,html-keyboard-response,NA,NA,NA,NA,NA,NA,NA,NA,NA,NA,NA
2023-04-04T14:57:12Z,9eprutwa,serial-reaction-time,1,R,4,1,1,2413,0,1,339.8999999985099,1,X
2023-04-04T14:57:12Z,9eprutwa,serial-reaction-time,1,P,4,1,2,2413,0,2,354,12,X
2023-04-04T14:57:13Z,9eprutwa,serial-reaction-time,1,R,4,1,3,2413,0,2,321.19999999925494,122,L
2023-04-04T14:57:13Z,9eprutwa,serial-reaction-time,1,P,4,1,4,2413,0,4,341.29999999701977,224,H
2023-04-04T14:57:14Z,9eprutwa,serial-reaction-time,1,R,4,1,5,2413,0,2,302,242,T
2023-04-04T14:57:14Z,9eprutwa,serial-reaction-time,1,P,4,1,6,2413,0,1,329.80000000074506,421,H
2023-04-04T14:57:14Z,9eprutwa,serial-reaction-time,1,R,4,1,7,2413,0,2,340.69999999925494,212,T
2023-04-04T14:57:15Z,9eprutwa,serial-reaction-time,1,P,4,1,8,2413,0,3,319.30000000074506,123,H
2023-04-04T14:57:15Z,9eprutwa,serial-reaction-time,1,R,4,1,9,2413,0,1,311.8999999985099,231,L
2023-04-04T14:57:16Z,9eprutwa,serial-reaction-time,1,P,4,1,10,2413,0,2,277.80000000074506,312,H
2023-04-04T14:57:16Z,9eprutwa,serial-reaction-time,1,R,4,1,11,2413,0,2,296.5,122,L
2023-04-04T14:57:17Z,9eprutwa,serial-reaction-time,1,P,4,1,12,2413,0,4,327.30000000074506,224,H
2023-04-04T14:57:17Z,9eprutwa,serial-reaction-time,1,R,4,1,13,2413,0,4,297.3999999985099,244,H
2023-04-04T14:57:18Z,9eprutwa,serial-reaction-time,1,P,4,1,14,2413,0,1,262,441,H
2023-04-04T14:57:18Z,9eprutwa,serial-reaction-time,NA,R,4,1,15,2413,0,3,320.30000000074506,413,L
2023-04-04T14:57:18Z,9eprutwa,serial-reaction-time,1,R,4,0,15,2413,0,3,602.5999999977648,413,L
2023-04-04T14:57:19Z,9eprutwa,serial-reaction-time,1,P,4,1,16,2413,0,3,292.4000000022352,133,H
2023-04-04T14:57:19Z,9eprutwa,serial-reaction-time,1,R,4,1,17,2413,0,2,427.0999999977648,332,H
2023-04-04T14:57:20Z,9eprutwa,serial-reaction-time,1,P,4,1,18,2413,0,2,294.19999999925494,322,H
2023-04-04T14:57:20Z,9eprutwa,serial-reaction-time,1,R,4,1,19,2413,0,4,362.30000000074506,224,H
2023-04-04T14:57:21Z,9eprutwa,serial-reaction-time,1,P,4,1,20,2413,0,4,353.69999999925494,244,H
2023-04-04T14:57:21Z,9eprutwa,serial-reaction-time,1,R,4,1,21,2413,0,4,318.4000000022352,444,R
2023-04-04T14:57:22Z,9eprutwa,serial-reaction-time,NA,P,4,1,22,2413,0,1,315.69999999925494,441,H
2023-04-04T14:57:22Z,9eprutwa,serial-reaction-time,1,P,4,0,22,2413,0,1,343.8999999985099,441,H
2023-04-04T14:57:22Z,9eprutwa,serial-reaction-time,1,R,4,1,23,2413,0,3,367.8999999985099,413,L
2023-04-04T14:57:23Z,9eprutwa,serial-reaction-time,1,P,4,1,24,2413,0,3,255.40000000223517,133,H
2023-04-04T14:57:23Z,9eprutwa,serial-reaction-time,1,R,4,1,25,2413,0,4,336.3999999985099,334,L
2023-04-04T14:57:23Z,9eprutwa,serial-reaction-time,1,P,4,1,26,2413,0,2,319,342,H
2023-04-04T14:57:24Z,9eprutwa,serial-reaction-time,1,R,4,1,27,2413,0,3,353.3999999985099,423,L
2023-04-04T14:57:24Z,9eprutwa,serial-reaction-time,1,P,4,1,28,2413,0,4,318.4000000022352,234,H
2023-04-04T14:57:25Z,9eprutwa,serial-reaction-time,1,R,4,1,29,2413,0,2,320.6000000014901,342,H
2023-04-04T14:57:25Z,9eprutwa,serial-reaction-time,1,P,4,1,30,2413,0,1,351.5,421,H
2023-04-04T14:57:26Z,9eprutwa,serial-reaction-time,1,R,4,1,31,2413,0,2,339.1000000014901,212,T
2023-04-04T14:57:26Z,9eprutwa,serial-reaction-time,1,P,4,1,32,2413,0,3,350.5,123,H
2023-04-04T14:57:27Z,9eprutwa,serial-reaction-time,1,R,4,1,33,2413,0,4,310.6000000014901,234,H
2023-04-04T14:57:27Z,9eprutwa,serial-reaction-time,1,P,4,1,34,2413,0,2,308.19999999925494,342,H
2023-04-04T14:57:28Z,9eprutwa,serial-reaction-time,1,R,4,1,35,2413,0,3,356.19999999925494,423,L
2023-04-04T14:57:28Z,9eprutwa,serial-reaction-time,1,P,4,1,36,2413,0,4,264.69999999925494,234,H
2023-04-04T14:57:29Z,9eprutwa,serial-reaction-time,1,R,4,1,37,2413,0,4,355.5,344,L
2023-04-04T14:57:29Z,9eprutwa,serial-reaction-time,NA,P,4,1,38,2413,0,1,283.6000000014901,441,H
2023-04-04T14:57:29Z,9eprutwa,serial-reaction-time,1,P,4,0,38,2413,0,1,305.30000000447035,441,H
2023-04-04T14:57:29Z,9eprutwa,serial-reaction-time,NA,R,4,1,39,2413,0,1,301.19999999925494,411,H
2023-04-04T14:57:29Z,9eprutwa,serial-reaction-time,1,R,4,0,39,2413,0,1,301.69999999925494,411,H
2023-04-04T14:57:30Z,9eprutwa,serial-reaction-time,1,P,4,1,40,2413,0,3,340.1000000014901,113,H
2023-04-04T14:57:31Z,9eprutwa,serial-reaction-time,1,R,4,1,41,2413,0,1,426.5,131,T
2023-04-04T14:57:31Z,9eprutwa,serial-reaction-time,1,P,4,1,42,2413,0,2,462,312,H
2023-04-04T14:57:32Z,9eprutwa,serial-reaction-time,NA,R,4,1,43,2413,0,3,310.9000000022352,123,H
2023-04-04T14:57:32Z,9eprutwa,serial-reaction-time,1,R,4,0,43,2413,0,3,636.0000000037253,123,H
2023-04-04T14:57:32Z,9eprutwa,serial-reaction-time,1,P,4,1,44,2413,0,4,342.19999999925494,234,H
2023-04-04T14:57:33Z,9eprutwa,serial-reaction-time,1,R,4,1,45,2413,0,2,340,342,H
2023-04-04T14:57:33Z,9eprutwa,serial-reaction-time,1,P,4,1,46,2413,0,1,330.8999999985099,421,H
2023-04-04T14:57:34Z,9eprutwa,serial-reaction-time,1,R,4,1,47,2413,0,3,355.29999999701977,213,L
2023-04-04T14:57:34Z,9eprutwa,serial-reaction-time,1,P,4,1,48,2413,0,3,348.69999999925494,133,H
2023-04-04T14:57:35Z,9eprutwa,serial-reaction-time,NA,R,4,1,49,2413,0,4,376,334,L
2023-04-04T14:57:35Z,9eprutwa,serial-reaction-time,1,R,4,0,49,2413,0,4,392.5999999977648,334,L
2023-04-04T14:57:35Z,9eprutwa,serial-reaction-time,1,P,4,1,50,2413,0,2,335.5,342,H
2023-04-04T14:57:36Z,9eprutwa,serial-reaction-time,NA,R,4,1,51,2413,0,3,377.8999999985099,423,L
2023-04-04T14:57:36Z,9eprutwa,serial-reaction-time,1,R,4,0,51,2413,0,3,649.2999999970198,423,L
2023-04-04T14:57:37Z,9eprutwa,serial-reaction-time,1,P,4,1,52,2413,0,4,348.8999999985099,234,H
2023-04-04T14:57:37Z,9eprutwa,serial-reaction-time,1,R,4,1,53,2413,0,2,333.3999999985099,342,H
2023-04-04T14:57:37Z,9eprutwa,serial-reaction-time,NA,P,4,1,54,2413,0,1,265,421,H
2023-04-04T14:57:38Z,9eprutwa,serial-reaction-time,1,P,4,0,54,2413,0,1,539.8000000007451,421,H
2023-04-04T14:57:38Z,9eprutwa,serial-reaction-time,1,R,4,1,55,2413,0,4,335.4000000022352,214,H
2023-04-04T14:57:39Z,9eprutwa,serial-reaction-time,1,P,4,1,56,2413,0,3,338,143,H
2023-04-04T14:57:39Z,9eprutwa,serial-reaction-time,1,R,4,1,57,2413,0,3,322.9000000022352,433,L
2023-04-04T14:57:40Z,9eprutwa,serial-reaction-time,1,P,4,1,58,2413,0,2,308.6000000014901,332,H
2023-04-04T14:57:40Z,9eprutwa,serial-reaction-time,1,R,4,1,59,2413,0,2,313.69999999925494,322,H
2023-04-04T14:57:41Z,9eprutwa,serial-reaction-time,1,P,4,1,60,2413,0,4,359.8999999985099,224,H
2023-04-04T14:57:41Z,9eprutwa,serial-reaction-time,1,R,4,1,61,2413,0,1,357.69999999925494,241,L
2023-04-04T14:57:41Z,9eprutwa,serial-reaction-time,1,P,4,1,62,2413,0,1,276.69999999925494,411,H
2023-04-04T14:57:42Z,9eprutwa,serial-reaction-time,1,R,4,1,63,2413,0,1,327,111,R
2023-04-04T14:57:42Z,9eprutwa,serial-reaction-time,1,P,4,1,64,2413,0,3,355.69999999925494,113,H
2023-04-04T14:57:43Z,9eprutwa,serial-reaction-time,NA,R,4,1,65,2413,0,1,329,131,T
2023-04-04T14:57:43Z,9eprutwa,serial-reaction-time,1,R,4,0,65,2413,0,1,400,131,T
2023-04-04T14:57:44Z,9eprutwa,serial-reaction-time,1,P,4,1,66,2413,0,2,424.5,312,H
2023-04-04T14:57:44Z,9eprutwa,serial-reaction-time,1,R,4,1,67,2413,0,3,432.1000000014901,123,H
2023-04-04T14:57:45Z,9eprutwa,serial-reaction-time,1,P,4,1,68,2413,0,4,330.69999999925494,234,H
2023-04-04T14:57:45Z,9eprutwa,serial-reaction-time,1,R,4,1,69,2413,0,1,293.80000000074506,341,L
2023-04-04T14:57:45Z,9eprutwa,serial-reaction-time,1,P,4,1,70,2413,0,1,299.80000000074506,411,H
2023-04-04T14:57:46Z,9eprutwa,serial-reaction-time,1,R,4,1,71,2413,0,3,338.30000000074506,113,H
2023-04-04T14:57:46Z,9eprutwa,serial-reaction-time,1,P,4,1,72,2413,0,3,366.30000000074506,133,H
2023-04-04T14:57:47Z,9eprutwa,serial-reaction-time,1,R,4,1,73,2413,0,3,355.80000000074506,333,R
2023-04-04T14:57:47Z,9eprutwa,serial-reaction-time,1,P,4,1,74,2413,0,2,350.30000000074506,332,H
2023-04-04T14:57:48Z,9eprutwa,serial-reaction-time,1,R,4,1,75,2413,0,1,377.5,321,L
2023-04-04T14:57:48Z,9eprutwa,serial-reaction-time,1,P,4,1,76,2413,0,4,352.6000000014901,214,H
2023-04-04T14:57:49Z,9eprutwa,serial-reaction-time,NA,R,4,1,77,2413,0,3,352.70000000298023,143,H
2023-04-04T14:57:49Z,9eprutwa,serial-reaction-time,1,R,4,0,77,2413,0,3,549.9000000022352,143,H
2023-04-04T14:57:50Z,9eprutwa,serial-reaction-time,NA,P,4,1,78,2413,0,1,275.5,431,H
2023-04-04T14:57:50Z,9eprutwa,serial-reaction-time,1,P,4,0,78,2413,0,1,484.0999999977648,431,H
2023-04-04T14:57:50Z,9eprutwa,serial-reaction-time,1,R,4,1,79,2413,0,4,399.5,314,L
2023-04-04T14:57:51Z,9eprutwa,serial-reaction-time,1,P,4,1,80,2413,0,3,435,143,H
2023-04-04T14:57:56Z,9eprutwa,html-keyboard-response,NA,NA,NA,NA,NA,NA,NA,NA,NA,NA,NA
2023-04-04T14:57:58Z,9eprutwa,html-keyboard-response,NA,NA,NA,NA,NA,NA,NA,NA,NA,NA,NA
2023-04-04T14:57:59Z,9eprutwa,serial-reaction-time,1,R,5,1,1,2413,0,1,391.8999999985099,1,X
2023-04-04T14:58:00Z,9eprutwa,serial-reaction-time,1,P,5,1,2,2413,0,2,298.6000000014901,12,X
2023-04-04T14:58:00Z,9eprutwa,serial-reaction-time,1,R,5,1,3,2413,0,1,376.29999999701977,121,T
2023-04-04T14:58:01Z,9eprutwa,serial-reaction-time,NA,P,5,1,4,2413,0,4,336.8999999985099,214,H
2023-04-04T14:58:01Z,9eprutwa,serial-reaction-time,1,P,5,0,4,2413,0,4,468.3999999985099,214,H
2023-04-04T14:58:02Z,9eprutwa,serial-reaction-time,1,R,5,1,5,2413,0,2,388.4000000022352,142,L
2023-04-04T14:58:02Z,9eprutwa,serial-reaction-time,1,P,5,1,6,2413,0,1,357.4000000022352,421,H
2023-04-04T14:58:02Z,9eprutwa,serial-reaction-time,1,R,5,1,7,2413,0,1,311.30000000074506,211,L
2023-04-04T14:58:03Z,9eprutwa,serial-reaction-time,1,P,5,1,8,2413,0,3,328,113,H
2023-04-04T14:58:03Z,9eprutwa,serial-reaction-time,1,R,5,1,9,2413,0,1,401,131,T
2023-04-04T14:58:04Z,9eprutwa,serial-reaction-time,1,P,5,1,10,2413,0,2,380.69999999925494,312,H
2023-04-04T14:58:04Z,9eprutwa,serial-reaction-time,NA,R,5,1,11,2413,0,4,324.6000000014901,124,L
2023-04-04T14:58:05Z,9eprutwa,serial-reaction-time,1,R,5,0,11,2413,0,4,643.5000000037253,124,L
2023-04-04T14:58:05Z,9eprutwa,serial-reaction-time,1,P,5,1,12,2413,0,4,284.9000000022352,244,H
2023-04-04T14:58:06Z,9eprutwa,serial-reaction-time,1,R,5,1,13,2413,0,1,326.4000000022352,441,H
2023-04-04T14:58:06Z,9eprutwa,serial-reaction-time,1,P,5,1,14,2413,0,1,276.30000000074506,411,H
2023-04-04T14:58:07Z,9eprutwa,serial-reaction-time,1,R,5,1,15,2413,0,4,408.19999999925494,114,L
2023-04-04T14:58:07Z,9eprutwa,serial-reaction-time,1,P,5,1,16,2413,0,3,369.1000000014901,143,H
2023-04-04T14:58:08Z,9eprutwa,serial-reaction-time,1,R,5,1,17,2413,0,2,365.79999999701977,432,L
2023-04-04T14:58:08Z,9eprutwa,serial-reaction-time,1,P,5,1,18,2413,0,2,281,322,H
2023-04-04T14:58:09Z,9eprutwa,serial-reaction-time,1,R,5,1,19,2413,0,2,351,222,R
2023-04-04T14:58:09Z,9eprutwa,serial-reaction-time,1,P,5,1,20,2413,0,4,330.80000000074506,224,H
2023-04-04T14:58:09Z,9eprutwa,serial-reaction-time,1,R,5,1,21,2413,0,1,350,241,L
2023-04-04T14:58:10Z,9eprutwa,serial-reaction-time,1,P,5,1,22,2413,0,1,237.29999999701977,411,H
2023-04-04T14:58:10Z,9eprutwa,serial-reaction-time,1,R,5,1,23,2413,0,2,420.8999999985099,112,L
2023-04-04T14:58:11Z,9eprutwa,serial-reaction-time,1,P,5,1,24,2413,0,3,365.19999999925494,123,H
2023-04-04T14:58:11Z,9eprutwa,serial-reaction-time,1,R,5,1,25,2413,0,2,373,232,T
2023-04-04T14:58:12Z,9eprutwa,serial-reaction-time,1,P,5,1,26,2413,0,2,290.19999999925494,322,H
2023-04-04T14:58:12Z,9eprutwa,serial-reaction-time,1,R,5,1,27,2413,0,4,336.4000000022352,224,H
2023-04-04T14:58:13Z,9eprutwa,serial-reaction-time,1,P,5,1,28,2413,0,4,305.19999999925494,244,H
2023-04-04T14:58:13Z,9eprutwa,serial-reaction-time,NA,R,5,1,29,2413,0,2,320.4000000022352,442,L
2023-04-04T14:58:13Z,9eprutwa,serial-reaction-time,1,R,5,0,29,2413,0,2,483.5,442,L
2023-04-04T14:58:14Z,9eprutwa,serial-reaction-time,NA,P,5,1,30,2413,0,1,79,421,H
2023-04-04T14:58:14Z,9eprutwa,serial-reaction-time,1,P,5,0,30,2413,0,1,470.6000000014901,421,H
2023-04-04T14:58:15Z,9eprutwa,serial-reaction-time,1,R,5,1,31,2413,0,4,391.6000000014901,214,H
2023-04-04T14:58:15Z,9eprutwa,serial-reaction-time,NA,P,5,1,32,2413,0,3,279.69999999925494,143,H
2023-04-04T14:58:15Z,9eprutwa,serial-reaction-time,1,P,5,0,32,2413,0,3,468.8999999985099,143,H
2023-04-04T14:58:16Z,9eprutwa,serial-reaction-time,1,R,5,1,33,2413,0,1,371.3999999985099,431,H
2023-04-04T14:58:16Z,9eprutwa,serial-reaction-time,NA,P,5,1,34,2413,0,2,246.60000000149012,312,H
2023-04-04T14:58:16Z,9eprutwa,serial-reaction-time,1,P,5,0,34,2413,0,2,546.3000000007451,312,H
2023-04-04T14:58:17Z,9eprutwa,serial-reaction-time,1,R,5,1,35,2413,0,3,301.80000000074506,123,H
2023-04-04T14:58:17Z,9eprutwa,serial-reaction-time,1,P,5,1,36,2413,0,4,384.5,234,H
2023-04-04T14:58:18Z,9eprutwa,serial-reaction-time,1,R,5,1,37,2413,0,1,302,341,L
2023-04-04T14:58:18Z,9eprutwa,serial-reaction-time,1,P,5,1,38,2413,0,1,276.1000000014901,411,H
2023-04-04T14:58:19Z,9eprutwa,serial-reaction-time,NA,R,5,1,39,2413,0,4,330,114,L
2023-04-04T14:58:19Z,9eprutwa,serial-reaction-time,1,R,5,0,39,2413,0,4,400.70000000298023,114,L
2023-04-04T14:58:19Z,9eprutwa,serial-reaction-time,1,P,5,1,40,2413,0,3,392.5,143,H
2023-04-04T14:58:20Z,9eprutwa,serial-reaction-time,1,R,5,1,41,2413,0,3,307.8999999985099,433,L
2023-04-04T14:58:20Z,9eprutwa,serial-reaction-time,1,P,5,1,42,2413,0,2,344.80000000074506,332,H
2023-04-04T14:58:21Z,9eprutwa,serial-reaction-time,1,R,5,1,43,2413,0,2,349.19999999925494,322,H
2023-04-04T14:58:21Z,9eprutwa,serial-reaction-time,1,P,5,1,44,2413,0,4,297.1000000014901,224,H
2023-04-04T14:58:22Z,9eprutwa,serial-reaction-time,1,R,5,1,45,2413,0,3,437.19999999925494,243,L
2023-04-04T14:58:22Z,9eprutwa,serial-reaction-time,1,P,5,1,46,2413,0,1,371.0999999977648,431,H
2023-04-04T14:58:23Z,9eprutwa,serial-reaction-time,1,R,5,1,47,2413,0,3,350.30000000074506,313,T
2023-04-04T14:58:23Z,9eprutwa,serial-reaction-time,1,P,5,1,48,2413,0,3,299.1000000014901,133,H
2023-04-04T14:58:24Z,9eprutwa,serial-reaction-time,1,R,5,1,49,2413,0,4,297.1000000014901,334,L
2023-04-04T14:58:24Z,9eprutwa,serial-reaction-time,1,P,5,1,50,2413,0,2,315.19999999925494,342,H
2023-04-04T14:58:24Z,9eprutwa,serial-reaction-time,1,R,5,1,51,2413,0,2,307.1000000014901,422,L
2023-04-04T14:58:25Z,9eprutwa,serial-reaction-time,1,P,5,1,52,2413,0,4,330,224,H
2023-04-04T14:58:25Z,9eprutwa,serial-reaction-time,1,R,5,1,53,2413,0,4,353.30000000074506,244,H
2023-04-04T14:58:26Z,9eprutwa,serial-reaction-time,1,P,5,1,54,2413,0,1,376.69999999925494,441,H
2023-04-04T14:58:26Z,9eprutwa,serial-reaction-time,1,R,5,1,55,2413,0,1,315.69999999925494,411,H
2023-04-04T14:58:27Z,9eprutwa,serial-reaction-time,1,P,5,1,56,2413,0,3,334.6000000014901,113,H
2023-04-04T14:58:27Z,9eprutwa,serial-reaction-time,NA,R,5,1,57,2413,0,2,349.69999999925494,132,L
2023-04-04T14:58:28Z,9eprutwa,serial-reaction-time,1,R,5,0,57,2413,0,2,625.8999999985099,132,L
2023-04-04T14:58:28Z,9eprutwa,serial-reaction-time,1,P,5,1,58,2413,0,2,306.69999999925494,322,H
2023-04-04T14:58:28Z,9eprutwa,serial-reaction-time,1,R,5,1,59,2413,0,2,313.80000000074506,222,R
2023-04-04T14:58:29Z,9eprutwa,serial-reaction-time,1,P,5,1,60,2413,0,4,352.6000000014901,224,H
2023-04-04T14:58:29Z,9eprutwa,serial-reaction-time,1,R,5,1,61,2413,0,1,341.5,241,L
2023-04-04T14:58:30Z,9eprutwa,serial-reaction-time,1,P,5,1,62,2413,0,1,348.5,411,H
2023-04-04T14:58:30Z,9eprutwa,serial-reaction-time,1,R,5,1,63,2413,0,1,293.5,111,R
2023-04-04T14:58:31Z,9eprutwa,serial-reaction-time,1,P,5,1,64,2413,0,3,342.30000000074506,113,H
2023-04-04T14:58:31Z,9eprutwa,serial-reaction-time,1,R,5,1,65,2413,0,2,326.80000000074506,132,L
2023-04-04T14:58:32Z,9eprutwa,serial-reaction-time,1,P,5,1,66,2413,0,2,309.5,322,H
2023-04-04T14:58:32Z,9eprutwa,serial-reaction-time,1,R,5,1,67,2413,0,2,295.69999999925494,222,R
2023-04-04T14:58:33Z,9eprutwa,serial-reaction-time,1,P,5,1,68,2413,0,4,369.1000000014901,224,H
2023-04-04T14:58:33Z,9eprutwa,serial-reaction-time,1,R,5,1,69,2413,0,4,301.69999999925494,244,H
2023-04-04T14:58:34Z,9eprutwa,serial-reaction-time,1,P,5,1,70,2413,0,1,324.6000000014901,441,H
2023-04-04T14:58:34Z,9eprutwa,serial-reaction-time,NA,R,5,1,71,2413,0,4,384.3999999985099,414,T
2023-04-04T14:58:34Z,9eprutwa,serial-reaction-time,1,R,5,0,71,2413,0,4,399.19999999925494,414,T
2023-04-04T14:58:35Z,9eprutwa,serial-reaction-time,NA,P,5,1,72,2413,0,3,388,143,H
2023-04-04T14:58:35Z,9eprutwa,serial-reaction-time,1,P,5,0,72,2413,0,3,418.0999999977648,143,H
2023-04-04T14:58:35Z,9eprutwa,serial-reaction-time,1,R,5,1,73,2413,0,3,297.6000000014901,433,L
2023-04-04T14:58:36Z,9eprutwa,serial-reaction-time,NA,P,5,1,74,2413,0,2,346.5,332,H
2023-04-04T14:58:36Z,9eprutwa,serial-reaction-time,1,P,5,0,74,2413,0,2,399.1000000014901,332,H
2023-04-04T14:58:36Z,9eprutwa,serial-reaction-time,NA,R,5,1,75,2413,0,3,475.29999999701977,323,T
2023-04-04T14:58:36Z,9eprutwa,serial-reaction-time,1,R,5,0,75,2413,0,3,540.5999999940395,323,T
2023-04-04T14:58:37Z,9eprutwa,serial-reaction-time,1,P,5,1,76,2413,0,4,488,234,H
2023-04-04T14:58:37Z,9eprutwa,serial-reaction-time,1,R,5,1,77,2413,0,1,369.6000000014901,341,L
2023-04-04T14:58:38Z,9eprutwa,serial-reaction-time,1,P,5,1,78,2413,0,1,299.30000000074506,411,H
2023-04-04T14:58:38Z,9eprutwa,serial-reaction-time,NA,R,5,1,79,2413,0,2,246.60000000149012,112,L
2023-04-04T14:58:39Z,9eprutwa,serial-reaction-time,1,R,5,0,79,2413,0,2,558.5,112,L
2023-04-04T14:58:39Z,9eprutwa,serial-reaction-time,1,P,5,1,80,2413,0,3,313.30000000074506,123,H
2023-04-04T14:58:44Z,9eprutwa,html-keyboard-response,NA,NA,NA,NA,NA,NA,NA,NA,NA,NA,NA
2023-04-04T14:58:47Z,9eprutwa,html-keyboard-response,NA,NA,NA,NA,NA,NA,NA,NA,NA,NA,NA
2023-04-04T14:58:48Z,9eprutwa,fullscreen,NA,NA,NA,NA,NA,NA,NA,NA,NA,NA,NA
2023-04-04T14:58:32Z,mtu8p5sa,fullscreen,NA,NA,NA,NA,NA,NA,NA,NA,NA,NA,NA
2023-04-04T14:58:34Z,mtu8p5sa,html-keyboard-response,NA,NA,NA,NA,NA,NA,NA,NA,NA,NA,NA
2023-04-04T14:58:36Z,mtu8p5sa,serial-reaction-time,NA,R,1,1,1,2134,0,2,630.3999999761581,2,X
2023-04-04T14:58:36Z,mtu8p5sa,serial-reaction-time,1,R,1,0,1,2134,0,2,756,2,X
2023-04-04T14:58:36Z,mtu8p5sa,serial-reaction-time,1,P,1,1,2,2134,0,2,206.39999997615817,22,X
2023-04-04T14:58:37Z,mtu8p5sa,serial-reaction-time,1,R,1,1,3,2134,0,4,299,224,L
2023-04-04T14:58:37Z,mtu8p5sa,serial-reaction-time,1,P,1,1,4,2134,0,1,313.10000002384186,241,H
2023-04-04T14:58:37Z,mtu8p5sa,serial-reaction-time,1,R,1,1,5,2134,0,1,282,411,L
2023-04-04T14:58:38Z,mtu8p5sa,serial-reaction-time,NA,P,1,1,6,2134,0,3,302.2000000476837,113,H
2023-04-04T14:58:38Z,mtu8p5sa,serial-reaction-time,1,P,1,0,6,2134,0,3,526.8000000715256,113,H
2023-04-04T14:58:38Z,mtu8p5sa,serial-reaction-time,1,R,1,1,7,2134,0,1,276.10000002384186,131,T
2023-04-04T14:58:39Z,mtu8p5sa,serial-reaction-time,1,P,1,1,8,2134,0,4,295.5,314,H
2023-04-04T14:58:39Z,mtu8p5sa,serial-reaction-time,1,R,1,1,9,2134,0,2,307.5,142,L
2023-04-04T14:58:40Z,mtu8p5sa,serial-reaction-time,1,P,1,1,10,2134,0,2,230.10000002384183,422,H
2023-04-04T14:58:40Z,mtu8p5sa,serial-reaction-time,1,R,1,1,11,2134,0,4,279.7999999523163,224,L
2023-04-04T14:58:40Z,mtu8p5sa,serial-reaction-time,1,P,1,1,12,2134,0,1,270,241,H
2023-04-04T14:58:41Z,mtu8p5sa,serial-reaction-time,1,R,1,1,13,2134,0,1,248.5,411,L
2023-04-04T14:58:41Z,mtu8p5sa,serial-reaction-time,1,P,1,1,14,2134,0,3,321.7999999523163,113,H
2023-04-04T14:58:42Z,mtu8p5sa,serial-reaction-time,1,R,1,1,15,2134,0,3,213.89999997615817,133,H
2023-04-04T14:58:42Z,mtu8p5sa,serial-reaction-time,1,P,1,1,16,2134,0,4,290.89999997615814,334,H
2023-04-04T14:58:42Z,mtu8p5sa,serial-reaction-time,1,R,1,1,17,2134,0,1,287,341,L
2023-04-04T14:58:43Z,mtu8p5sa,serial-reaction-time,1,P,1,1,18,2134,0,2,330.7000000476837,412,H
2023-04-04T14:58:43Z,mtu8p5sa,serial-reaction-time,1,R,1,1,19,2134,0,2,242.09999990463257,122,L
2023-04-04T14:58:44Z,mtu8p5sa,serial-reaction-time,1,P,1,1,20,2134,0,1,281.2999999523163,221,H
2023-04-04T14:58:44Z,mtu8p5sa,serial-reaction-time,1,R,1,1,21,2134,0,4,272.89999997615814,214,L
2023-04-04T14:58:45Z,mtu8p5sa,serial-reaction-time,NA,P,1,1,22,2134,0,3,296.2000000476837,143,H
2023-04-04T14:58:45Z,mtu8p5sa,serial-reaction-time,1,P,1,0,22,2134,0,3,409.39999997615814,143,H
2023-04-04T14:58:45Z,mtu8p5sa,serial-reaction-time,1,R,1,1,23,2134,0,4,326,434,T
2023-04-04T14:58:46Z,mtu8p5sa,serial-reaction-time,1,P,1,1,24,2134,0,4,287,344,H
2023-04-04T14:58:46Z,mtu8p5sa,serial-reaction-time,1,R,1,1,25,2134,0,3,260.89999997615814,443,L
2023-04-04T14:58:46Z,mtu8p5sa,serial-reaction-time,NA,P,1,1,26,2134,0,2,308.1999999284744,432,H
2023-04-04T14:58:47Z,mtu8p5sa,serial-reaction-time,1,P,1,0,26,2134,0,2,516.6999999284744,432,H
2023-04-04T14:58:47Z,mtu8p5sa,serial-reaction-time,1,R,1,1,27,2134,0,4,271.2999999523163,324,H
2023-04-04T14:58:47Z,mtu8p5sa,serial-reaction-time,1,P,1,1,28,2134,0,1,317.39999997615814,241,H
2023-04-04T14:58:48Z,mtu8p5sa,serial-reaction-time,1,R,1,1,29,2134,0,3,346.7999999523163,413,L
2023-04-04T14:58:48Z,mtu8p5sa,serial-reaction-time,1,P,1,1,30,2134,0,3,233,133,H
2023-04-04T14:58:49Z,mtu8p5sa,serial-reaction-time,1,R,1,1,31,2134,0,4,289.8000000715256,334,H
2023-04-04T14:58:49Z,mtu8p5sa,serial-reaction-time,1,P,1,1,32,2134,0,4,265,344,H
2023-04-04T14:58:50Z,mtu8p5sa,serial-reaction-time,1,R,1,1,33,2134,0,1,319.89999997615814,441,L
2023-04-04T14:58:50Z,mtu8p5sa,serial-reaction-time,1,P,1,1,34,2134,0,2,434.2999999523163,412,H
2023-04-04T14:58:51Z,mtu8p5sa,serial-reaction-time,1,R,1,1,35,2134,0,3,280.2999999523163,123,H
2023-04-04T14:58:51Z,mtu8p5sa,serial-reaction-time,1,P,1,1,36,2134,0,1,275.10000002384186,231,H
2023-04-04T14:58:51Z,mtu8p5sa,serial-reaction-time,1,R,1,1,37,2134,0,1,264.7000000476837,311,L
2023-04-04T14:58:52Z,mtu8p5sa,serial-reaction-time,1,P,1,1,38,2134,0,3,289,113,H
2023-04-04T14:58:52Z,mtu8p5sa,serial-reaction-time,1,R,1,1,39,2134,0,3,283.89999997615814,133,H
2023-04-04T14:58:53Z,mtu8p5sa,serial-reaction-time,1,P,1,1,40,2134,0,4,264.39999997615814,334,H
2023-04-04T14:58:53Z,mtu8p5sa,serial-reaction-time,1,R,1,1,41,2134,0,4,229.89999997615817,344,H
2023-04-04T14:58:53Z,mtu8p5sa,serial-reaction-time,1,P,1,1,42,2134,0,2,305.7000000476837,442,H
2023-04-04T14:58:54Z,mtu8p5sa,serial-reaction-time,1,R,1,1,43,2134,0,2,224.60000002384183,422,H
2023-04-04T14:58:54Z,mtu8p5sa,serial-reaction-time,1,P,1,1,44,2134,0,1,322,221,H
2023-04-04T14:58:55Z,mtu8p5sa,serial-reaction-time,1,R,1,1,45,2134,0,4,374.5,214,L
2023-04-04T14:58:55Z,mtu8p5sa,serial-reaction-time,1,P,1,1,46,2134,0,3,367.5,143,H
2023-04-04T14:58:56Z,mtu8p5sa,serial-reaction-time,1,R,1,1,47,2134,0,3,290.7000000476837,433,L
2023-04-04T14:58:56Z,mtu8p5sa,serial-reaction-time,1,P,1,1,48,2134,0,4,309.10000002384186,334,H
2023-04-04T14:58:56Z,mtu8p5sa,serial-reaction-time,NA,R,1,1,49,2134,0,3,239,343,T
2023-04-04T14:58:57Z,mtu8p5sa,serial-reaction-time,1,R,1,0,49,2134,0,3,416.2999999523163,343,T
2023-04-04T14:58:57Z,mtu8p5sa,serial-reaction-time,1,P,1,1,50,2134,0,2,403.89999997615814,432,H
2023-04-04T14:58:57Z,mtu8p5sa,serial-reaction-time,NA,R,1,1,51,2134,0,3,283.7999999523163,323,T
2023-04-04T14:58:58Z,mtu8p5sa,serial-reaction-time,1,R,1,0,51,2134,0,3,486.39999985694885,323,T
2023-04-04T14:58:58Z,mtu8p5sa,serial-reaction-time,1,P,1,1,52,2134,0,1,281.60000002384186,231,H
2023-04-04T14:58:59Z,mtu8p5sa,serial-reaction-time,1,R,1,1,53,2134,0,4,431.7999999523163,314,H
2023-04-04T14:58:59Z,mtu8p5sa,serial-reaction-time,1,P,1,1,54,2134,0,3,262.7000000476837,143,H
2023-04-04T14:58:59Z,mtu8p5sa,serial-reaction-time,NA,R,1,1,55,2134,0,4,172.30000007152557,434,T
2023-04-04T14:59:00Z,mtu8p5sa,serial-reaction-time,1,R,1,0,55,2134,0,4,360.40000009536743,434,T
2023-04-04T14:59:00Z,mtu8p5sa,serial-reaction-time,1,P,1,1,56,2134,0,4,287.39999997615814,344,H
2023-04-04T14:59:00Z,mtu8p5sa,serial-reaction-time,1,R,1,1,57,2134,0,4,341.2999999523163,444,R
2023-04-04T14:59:01Z,mtu8p5sa,serial-reaction-time,NA,P,1,1,58,2134,0,2,171.89999997615814,442,H
2023-04-04T14:59:01Z,mtu8p5sa,serial-reaction-time,1,P,1,0,58,2134,0,2,359.5,442,H
2023-04-04T14:59:01Z,mtu8p5sa,serial-reaction-time,1,R,1,1,59,2134,0,2,285.60000002384186,422,H
2023-04-04T14:59:02Z,mtu8p5sa,serial-reaction-time,NA,P,1,1,60,2134,0,1,240.10000002384183,221,H
2023-04-04T14:59:02Z,mtu8p5sa,serial-reaction-time,1,P,1,0,60,2134,0,1,394.89999997615814,221,H
2023-04-04T14:59:02Z,mtu8p5sa,serial-reaction-time,1,R,1,1,61,2134,0,3,303.10000002384186,213,L
2023-04-04T14:59:03Z,mtu8p5sa,serial-reaction-time,1,P,1,1,62,2134,0,3,201.89999997615817,133,H
2023-04-04T14:59:03Z,mtu8p5sa,serial-reaction-time,1,R,1,1,63,2134,0,2,430.59999990463257,332,L
2023-04-04T14:59:04Z,mtu8p5sa,serial-reaction-time,1,P,1,1,64,2134,0,4,320.1999999284744,324,H
2023-04-04T14:59:04Z,mtu8p5sa,serial-reaction-time,1,R,1,1,65,2134,0,3,337,243,L
2023-04-04T14:59:04Z,mtu8p5sa,serial-reaction-time,1,P,1,1,66,2134,0,2,333.2999999523163,432,H
2023-04-04T14:59:05Z,mtu8p5sa,serial-reaction-time,1,R,1,1,67,2134,0,3,305.60000002384186,323,T
2023-04-04T14:59:05Z,mtu8p5sa,serial-reaction-time,1,P,1,1,68,2134,0,1,361.39999997615814,231,H
2023-04-04T14:59:06Z,mtu8p5sa,serial-reaction-time,NA,R,1,1,69,2134,0,2,262.39999997615814,312,L
2023-04-04T14:59:06Z,mtu8p5sa,serial-reaction-time,1,R,1,0,69,2134,0,2,495.2999999523163,312,L
2023-04-04T14:59:06Z,mtu8p5sa,serial-reaction-time,1,P,1,1,70,2134,0,3,271.10000002384186,123,H
2023-04-04T14:59:07Z,mtu8p5sa,serial-reaction-time,1,R,1,1,71,2134,0,3,225.39999997615817,233,L
2023-04-04T14:59:07Z,mtu8p5sa,serial-reaction-time,1,P,1,1,72,2134,0,4,254.39999997615817,334,H
2023-04-04T14:59:08Z,mtu8p5sa,serial-reaction-time,1,R,1,1,73,2134,0,2,381.5,342,L
2023-04-04T14:59:08Z,mtu8p5sa,serial-reaction-time,1,P,1,1,74,2134,0,2,276.3000000715256,422,H
2023-04-04T14:59:08Z,mtu8p5sa,serial-reaction-time,1,R,1,1,75,2134,0,2,286.7999999523163,222,R
2023-04-04T14:59:09Z,mtu8p5sa,serial-reaction-time,1,P,1,1,76,2134,0,1,356.7999999523163,221,H
2023-04-04T14:59:09Z,mtu8p5sa,serial-reaction-time,1,R,1,1,77,2134,0,1,398.2000000476837,211,H
2023-04-04T14:59:10Z,mtu8p5sa,serial-reaction-time,1,P,1,1,78,2134,0,3,278.2999999523163,113,H
2023-04-04T14:59:10Z,mtu8p5sa,serial-reaction-time,NA,R,1,1,79,2134,0,1,232.79999995231628,131,T
2023-04-04T14:59:10Z,mtu8p5sa,serial-reaction-time,1,R,1,0,79,2134,0,1,295.2000000476837,131,T
2023-04-04T14:59:11Z,mtu8p5sa,serial-reaction-time,1,P,1,1,80,2134,0,4,301.60000002384186,314,H
2023-04-04T14:59:16Z,mtu8p5sa,html-keyboard-response,NA,NA,NA,NA,NA,NA,NA,NA,NA,NA,NA
2023-04-04T14:59:16Z,mtu8p5sa,html-keyboard-response,NA,NA,NA,NA,NA,NA,NA,NA,NA,NA,NA
2023-04-04T14:59:17Z,mtu8p5sa,serial-reaction-time,1,R,2,1,1,2134,0,3,314.90000009536743,3,X
2023-04-04T14:59:18Z,mtu8p5sa,serial-reaction-time,1,P,2,1,2,2134,0,2,303,32,X
2023-04-04T14:59:18Z,mtu8p5sa,serial-reaction-time,1,R,2,1,3,2134,0,4,263,324,H
2023-04-04T14:59:19Z,mtu8p5sa,serial-reaction-time,NA,P,2,1,4,2134,0,1,316.5,241,H
2023-04-04T14:59:19Z,mtu8p5sa,serial-reaction-time,1,P,2,0,4,2134,0,1,513,241,H
2023-04-04T14:59:19Z,mtu8p5sa,serial-reaction-time,NA,R,2,1,5,2134,0,4,328.2999999523163,414,T
2023-04-04T14:59:20Z,mtu8p5sa,serial-reaction-time,1,R,2,0,5,2134,0,4,536.1000000238419,414,T
2023-04-04T14:59:20Z,mtu8p5sa,serial-reaction-time,1,P,2,1,6,2134,0,3,338.39999997615814,143,H
2023-04-04T14:59:20Z,mtu8p5sa,serial-reaction-time,1,R,2,1,7,2134,0,4,310,434,T
2023-04-04T14:59:21Z,mtu8p5sa,serial-reaction-time,1,P,2,1,8,2134,0,4,270,344,H
2023-04-04T14:59:21Z,mtu8p5sa,serial-reaction-time,1,R,2,1,9,2134,0,3,287,443,L
2023-04-04T14:59:22Z,mtu8p5sa,serial-reaction-time,NA,P,2,1,10,2134,0,2,306.09999990463257,432,H
2023-04-04T14:59:22Z,mtu8p5sa,serial-reaction-time,1,P,2,0,10,2134,0,2,351.09999990463257,432,H
2023-04-04T14:59:22Z,mtu8p5sa,serial-reaction-time,1,R,2,1,11,2134,0,3,392.5,323,T
2023-04-04T14:59:23Z,mtu8p5sa,serial-reaction-time,1,P,2,1,12,2134,0,1,275.89999997615814,231,H
2023-04-04T14:59:23Z,mtu8p5sa,serial-reaction-time,1,R,2,1,13,2134,0,4,362,314,H
2023-04-04T14:59:24Z,mtu8p5sa,serial-reaction-time,1,P,2,1,14,2134,0,3,282.10000002384186,143,H
2023-04-04T14:59:24Z,mtu8p5sa,serial-reaction-time,1,R,2,1,15,2134,0,3,272.89999997615814,433,L
2023-04-04T14:59:24Z,mtu8p5sa,serial-reaction-time,1,P,2,1,16,2134,0,4,289.10000002384186,334,H
2023-04-04T14:59:25Z,mtu8p5sa,serial-reaction-time,1,R,2,1,17,2134,0,1,351.89999997615814,341,L
2023-04-04T14:59:25Z,mtu8p5sa,serial-reaction-time,1,P,2,1,18,2134,0,2,358.6999999284744,412,H
2023-04-04T14:59:26Z,mtu8p5sa,serial-reaction-time,1,R,2,1,19,2134,0,4,325.59999990463257,124,L
2023-04-04T14:59:26Z,mtu8p5sa,serial-reaction-time,1,P,2,1,20,2134,0,1,308.1999999284744,241,H
2023-04-04T14:59:27Z,mtu8p5sa,serial-reaction-time,1,R,2,1,21,2134,0,1,279.7999999523163,411,L
2023-04-04T14:59:27Z,mtu8p5sa,serial-reaction-time,1,P,2,1,22,2134,0,3,256.3000000715256,113,H
2023-04-04T14:59:27Z,mtu8p5sa,serial-reaction-time,NA,R,2,1,23,2134,0,2,273.2000000476837,132,L
2023-04-04T14:59:28Z,mtu8p5sa,serial-reaction-time,1,R,2,0,23,2134,0,2,509.5,132,L
2023-04-04T14:59:28Z,mtu8p5sa,serial-reaction-time,1,P,2,1,24,2134,0,4,286,324,H
2023-04-04T14:59:28Z,mtu8p5sa,serial-reaction-time,NA,R,2,1,25,2134,0,1,315,241,H
2023-04-04T14:59:29Z,mtu8p5sa,serial-reaction-time,1,R,2,0,25,2134,0,1,540.1000000238419,241,H
2023-04-04T14:59:29Z,mtu8p5sa,serial-reaction-time,1,P,2,1,26,2134,0,2,339.89999997615814,412,H
2023-04-04T14:59:30Z,mtu8p5sa,serial-reaction-time,1,R,2,1,27,2134,0,3,298.09999990463257,123,H
2023-04-04T14:59:30Z,mtu8p5sa,serial-reaction-time,1,P,2,1,28,2134,0,1,261.89999997615814,231,H
2023-04-04T14:59:30Z,mtu8p5sa,serial-reaction-time,1,R,2,1,29,2134,0,4,303.10000002384186,314,H
2023-04-04T14:59:31Z,mtu8p5sa,serial-reaction-time,1,P,2,1,30,2134,0,3,286.89999997615814,143,H
2023-04-04T14:59:31Z,mtu8p5sa,serial-reaction-time,1,R,2,1,31,2134,0,1,301.39999997615814,431,L
2023-04-04T14:59:32Z,mtu8p5sa,serial-reaction-time,1,P,2,1,32,2134,0,4,284.2000000476837,314,H
2023-04-04T14:59:32Z,mtu8p5sa,serial-reaction-time,1,R,2,1,33,2134,0,3,269.5,143,H
2023-04-04T14:59:33Z,mtu8p5sa,serial-reaction-time,1,P,2,1,34,2134,0,2,367,432,H
2023-04-04T14:59:33Z,mtu8p5sa,serial-reaction-time,1,R,2,1,35,2134,0,1,273.10000002384186,321,L
2023-04-04T14:59:33Z,mtu8p5sa,serial-reaction-time,1,P,2,1,36,2134,0,1,270.2000000476837,211,H
2023-04-04T14:59:34Z,mtu8p5sa,serial-reaction-time,1,R,2,1,37,2134,0,3,318,113,H
2023-04-04T14:59:34Z,mtu8p5sa,serial-reaction-time,1,P,2,1,38,2134,0,3,278.7000000476837,133,H
2023-04-04T14:59:35Z,mtu8p5sa,serial-reaction-time,1,R,2,1,39,2134,0,3,272.2999999523163,333,R
2023-04-04T14:59:35Z,mtu8p5sa,serial-reaction-time,1,P,2,1,40,2134,0,4,299.1999999284744,334,H
2023-04-04T14:59:35Z,mtu8p5sa,serial-reaction-time,1,R,2,1,41,2134,0,1,303.10000002384186,341,L
2023-04-04T14:59:36Z,mtu8p5sa,serial-reaction-time,1,P,2,1,42,2134,0,2,347.2999999523163,412,H
2023-04-04T14:59:36Z,mtu8p5sa,serial-reaction-time,1,R,2,1,43,2134,0,2,246.10000002384183,122,L
2023-04-04T14:59:37Z,mtu8p5sa,serial-reaction-time,1,P,2,1,44,2134,0,1,305.10000002384186,221,H
2023-04-04T14:59:37Z,mtu8p5sa,serial-reaction-time,1,R,2,1,45,2134,0,4,287.39999997615814,214,L
2023-04-04T14:59:38Z,mtu8p5sa,serial-reaction-time,1,P,2,1,46,2134,0,3,332.90000009536743,143,H
2023-04-04T14:59:38Z,mtu8p5sa,serial-reaction-time,1,R,2,1,47,2134,0,3,223.70000004768372,433,L
2023-04-04T14:59:38Z,mtu8p5sa,serial-reaction-time,1,P,2,1,48,2134,0,4,370.60000002384186,334,H
2023-04-04T14:59:39Z,mtu8p5sa,serial-reaction-time,1,R,2,1,49,2134,0,4,270.10000002384186,344,H
2023-04-04T14:59:39Z,mtu8p5sa,serial-reaction-time,1,P,2,1,50,2134,0,2,282.1999999284744,442,H
2023-04-04T14:59:40Z,mtu8p5sa,serial-reaction-time,NA,R,2,1,51,2134,0,3,304.6999999284744,423,L
2023-04-04T14:59:40Z,mtu8p5sa,serial-reaction-time,1,R,2,0,51,2134,0,3,382.6999999284744,423,L
2023-04-04T14:59:40Z,mtu8p5sa,serial-reaction-time,1,P,2,1,52,2134,0,1,361.6999999284744,231,H
2023-04-04T14:59:41Z,mtu8p5sa,serial-reaction-time,1,R,2,1,53,2134,0,3,283.7999999523163,313,T
2023-04-04T14:59:41Z,mtu8p5sa,serial-reaction-time,1,P,2,1,54,2134,0,3,274.5,133,H
2023-04-04T14:59:41Z,mtu8p5sa,serial-reaction-time,1,R,2,1,55,2134,0,4,290.89999997615814,334,H
2023-04-04T14:59:42Z,mtu8p5sa,serial-reaction-time,1,P,2,1,56,2134,0,4,259.39999997615814,344,H
2023-04-04T14:59:42Z,mtu8p5sa,serial-reaction-time,1,R,2,1,57,2134,0,2,330.09999990463257,442,H
2023-04-04T14:59:43Z,mtu8p5sa,serial-reaction-time,1,P,2,1,58,2134,0,2,249.70000004768372,422,H
2023-04-04T14:59:43Z,mtu8p5sa,serial-reaction-time,1,R,2,1,59,2134,0,4,260.10000002384186,224,L
2023-04-04T14:59:43Z,mtu8p5sa,serial-reaction-time,1,P,2,1,60,2134,0,1,309.10000002384186,241,H
2023-04-04T14:59:44Z,mtu8p5sa,serial-reaction-time,1,R,2,1,61,2134,0,3,289.2000000476837,413,L
2023-04-04T14:59:44Z,mtu8p5sa,serial-reaction-time,NA,P,2,1,62,2134,0,3,229.79999995231628,133,H
2023-04-04T14:59:44Z,mtu8p5sa,serial-reaction-time,1,P,2,0,62,2134,0,3,326.2999999523163,133,H
2023-04-04T14:59:45Z,mtu8p5sa,serial-reaction-time,NA,R,2,1,63,2134,0,2,98.60000002384186,332,L
2023-04-04T14:59:45Z,mtu8p5sa,serial-reaction-time,1,R,2,0,63,2134,0,2,433.2000000476837,332,L
2023-04-04T14:59:45Z,mtu8p5sa,serial-reaction-time,1,P,2,1,64,2134,0,4,295.5,324,H
2023-04-04T14:59:46Z,mtu8p5sa,serial-reaction-time,1,R,2,1,65,2134,0,4,213.30000007152557,244,L
2023-04-04T14:59:46Z,mtu8p5sa,serial-reaction-time,1,P,2,1,66,2134,0,2,288.89999997615814,442,H
2023-04-04T14:59:46Z,mtu8p5sa,serial-reaction-time,1,R,2,1,67,2134,0,1,325.10000002384186,421,L
2023-04-04T14:59:47Z,mtu8p5sa,serial-reaction-time,1,P,2,1,68,2134,0,1,281.09999990463257,211,H
2023-04-04T14:59:47Z,mtu8p5sa,serial-reaction-time,1,R,2,1,69,2134,0,2,440.5,112,L
2023-04-04T14:59:48Z,mtu8p5sa,serial-reaction-time,NA,P,2,1,70,2134,0,3,337,123,H
2023-04-04T14:59:48Z,mtu8p5sa,serial-reaction-time,1,P,2,0,70,2134,0,3,543.8000000715256,123,H
2023-04-04T14:59:49Z,mtu8p5sa,serial-reaction-time,1,R,2,1,71,2134,0,2,374.89999997615814,232,T
2023-04-04T14:59:49Z,mtu8p5sa,serial-reaction-time,NA,P,2,1,72,2134,0,4,296.5,324,H
