datetime,id,trial_type,correct,p_or_r,block,first_response,trial_number,sequence,is_practice,correct_pos,cumulative_rt,actual_triplet,triplet_type
2023-03-16T14:00:34Z,5ckvwhwy,fullscreen,NA,NA,NA,NA,NA,NA,NA,NA,NA,NA,NA
2023-03-16T14:00:38Z,5ckvwhwy,html-keyboard-response,NA,NA,NA,NA,NA,NA,NA,NA,NA,NA,NA
2023-03-16T14:00:39Z,5ckvwhwy,serial-reaction-time,1,R,1,1,1,3124,0,3,836,3,X
2023-03-16T14:00:40Z,5ckvwhwy,serial-reaction-time,1,P,1,1,2,3124,0,3,329,33,X
2023-03-16T14:00:41Z,5ckvwhwy,serial-reaction-time,1,R,1,1,3,3124,0,1,576,331,H
2023-03-16T14:00:41Z,5ckvwhwy,serial-reaction-time,1,P,1,1,4,3124,0,1,302.90000000596046,311,H
2023-03-16T14:00:42Z,5ckvwhwy,serial-reaction-time,1,R,1,1,5,3124,0,1,324.7000000178814,111,R
2023-03-16T14:00:42Z,5ckvwhwy,serial-reaction-time,1,P,1,1,6,3124,0,2,361.40000000596046,112,H
2023-03-16T14:00:42Z,5ckvwhwy,serial-reaction-time,1,R,1,1,7,3124,0,2,263,122,H
2023-03-16T14:00:43Z,5ckvwhwy,serial-reaction-time,1,P,1,1,8,3124,0,4,426.60000002384186,224,H
2023-03-16T14:00:43Z,5ckvwhwy,serial-reaction-time,NA,R,1,1,9,3124,0,1,225,241,L
2023-03-16T14:00:44Z,5ckvwhwy,serial-reaction-time,1,R,1,0,9,3124,0,1,545.0999999940395,241,L
2023-03-16T14:00:44Z,5ckvwhwy,serial-reaction-time,1,P,1,1,10,3124,0,3,421.800000011921,413,H
2023-03-16T14:00:45Z,5ckvwhwy,serial-reaction-time,1,R,1,1,11,3124,0,1,513.4000000059605,131,T
2023-03-16T14:00:45Z,5ckvwhwy,serial-reaction-time,1,P,1,1,12,3124,0,1,337.40000000596046,311,H
2023-03-16T14:00:46Z,5ckvwhwy,serial-reaction-time,1,R,1,1,13,3124,0,4,359.90000000596046,114,L
2023-03-16T14:00:47Z,5ckvwhwy,serial-reaction-time,1,P,1,1,14,3124,0,2,447.40000000596046,142,H
2023-03-16T14:00:47Z,5ckvwhwy,serial-reaction-time,1,R,1,1,15,3124,0,3,709.5,423,H
2023-03-16T14:00:48Z,5ckvwhwy,serial-reaction-time,1,P,1,1,16,3124,0,4,325.40000000596046,234,H
2023-03-16T14:00:48Z,5ckvwhwy,serial-reaction-time,1,R,1,1,17,3124,0,4,381.800000011921,344,L
2023-03-16T14:00:49Z,5ckvwhwy,serial-reaction-time,1,P,1,1,18,3124,0,3,589.9000000059605,443,H
2023-03-16T14:00:50Z,5ckvwhwy,serial-reaction-time,1,R,1,1,19,3124,0,2,447.800000011921,432,L
2023-03-16T14:00:50Z,5ckvwhwy,serial-reaction-time,1,P,1,1,20,3124,0,1,335.2999999821186,321,H
2023-03-16T14:00:51Z,5ckvwhwy,serial-reaction-time,1,R,1,1,21,3124,0,2,371.09999999403954,212,T
2023-03-16T14:00:51Z,5ckvwhwy,serial-reaction-time,1,P,1,1,22,3124,0,2,327,122,H
2023-03-16T14:00:52Z,5ckvwhwy,serial-reaction-time,1,R,1,1,23,3124,0,4,423.60000002384186,224,H
2023-03-16T14:00:52Z,5ckvwhwy,serial-reaction-time,1,P,1,1,24,3124,0,4,310.5,244,H
2023-03-16T14:00:53Z,5ckvwhwy,serial-reaction-time,1,R,1,1,25,3124,0,4,308.40000000596046,444,R
2023-03-16T14:00:53Z,5ckvwhwy,serial-reaction-time,1,P,1,1,26,3124,0,3,406,443,H
2023-03-16T14:00:54Z,5ckvwhwy,serial-reaction-time,1,R,1,1,27,3124,0,4,404,434,T
2023-03-16T14:00:54Z,5ckvwhwy,serial-reaction-time,1,P,1,1,28,3124,0,1,475.90000000596046,341,H
2023-03-16T14:00:55Z,5ckvwhwy,serial-reaction-time,1,R,1,1,29,3124,0,2,365.40000000596046,412,L
2023-03-16T14:00:55Z,5ckvwhwy,serial-reaction-time,1,P,1,1,30,3124,0,2,319.80000001192093,122,H
2023-03-16T14:00:56Z,5ckvwhwy,serial-reaction-time,1,R,1,1,31,3124,0,2,354,222,R
2023-03-16T14:00:56Z,5ckvwhwy,serial-reaction-time,1,P,1,1,32,3124,0,4,394.699999988079,224,H
2023-03-16T14:00:57Z,5ckvwhwy,serial-reaction-time,NA,R,1,1,33,3124,0,2,664.3999999761581,242,T
2023-03-16T14:00:57Z,5ckvwhwy,serial-reaction-time,1,R,1,0,33,3124,0,2,991,242,T
2023-03-16T14:00:58Z,5ckvwhwy,serial-reaction-time,NA,P,1,1,34,3124,0,3,494.699999988079,423,H
2023-03-16T14:00:58Z,5ckvwhwy,serial-reaction-time,1,P,1,0,34,3124,0,3,824.4000000059605,423,H
2023-03-16T14:00:59Z,5ckvwhwy,serial-reaction-time,1,R,1,1,35,3124,0,2,483,232,T
2023-03-16T14:01:00Z,5ckvwhwy,serial-reaction-time,1,P,1,1,36,3124,0,1,423.90000000596046,321,H
2023-03-16T14:01:00Z,5ckvwhwy,serial-reaction-time,1,R,1,1,37,3124,0,3,424.699999988079,213,L
2023-03-16T14:01:01Z,5ckvwhwy,serial-reaction-time,1,P,1,1,38,3124,0,2,360.19999998807907,132,H
2023-03-16T14:01:01Z,5ckvwhwy,serial-reaction-time,1,R,1,1,39,3124,0,3,597.5,323,T
2023-03-16T14:01:02Z,5ckvwhwy,serial-reaction-time,1,P,1,1,40,3124,0,4,379.59999999403954,234,H
2023-03-16T14:01:03Z,5ckvwhwy,serial-reaction-time,1,R,1,1,41,3124,0,2,545.7999999821186,342,L
2023-03-16T14:01:03Z,5ckvwhwy,serial-reaction-time,NA,P,1,1,42,3124,0,3,395.199999988079,423,H
2023-03-16T14:01:03Z,5ckvwhwy,serial-reaction-time,1,P,1,0,42,3124,0,3,662.5999999940395,423,H
2023-03-16T14:01:04Z,5ckvwhwy,serial-reaction-time,1,R,1,1,43,3124,0,3,346.10000002384186,233,L
2023-03-16T14:01:04Z,5ckvwhwy,serial-reaction-time,1,P,1,1,44,3124,0,1,432.199999988079,331,H
2023-03-16T14:01:05Z,5ckvwhwy,serial-reaction-time,1,R,1,1,45,3124,0,2,357.30000001192093,312,L
2023-03-16T14:01:05Z,5ckvwhwy,serial-reaction-time,1,P,1,1,46,3124,0,2,288.80000001192093,122,H
2023-03-16T14:01:06Z,5ckvwhwy,serial-reaction-time,1,R,1,1,47,3124,0,3,421,223,L
2023-03-16T14:01:07Z,5ckvwhwy,serial-reaction-time,1,P,1,1,48,3124,0,4,427.199999988079,234,H
2023-03-16T14:01:07Z,5ckvwhwy,serial-reaction-time,1,R,1,1,49,3124,0,1,449.199999988079,341,H
2023-03-16T14:01:08Z,5ckvwhwy,serial-reaction-time,1,P,1,1,50,3124,0,3,518.5,413,H
2023-03-16T14:01:08Z,5ckvwhwy,serial-reaction-time,1,R,1,1,51,3124,0,2,406.199999988079,132,H
2023-03-16T14:01:09Z,5ckvwhwy,serial-reaction-time,1,P,1,1,52,3124,0,1,465,321,H
2023-03-16T14:01:10Z,5ckvwhwy,serial-reaction-time,1,R,1,1,53,3124,0,4,442.199999988079,214,H
2023-03-16T14:01:11Z,5ckvwhwy,serial-reaction-time,1,P,1,1,54,3124,0,2,914.4000000059604,142,H
2023-03-16T14:01:11Z,5ckvwhwy,serial-reaction-time,1,R,1,1,55,3124,0,2,452.800000011921,422,L
2023-03-16T14:01:12Z,5ckvwhwy,serial-reaction-time,NA,P,1,1,56,3124,0,4,446.59999999403954,224,H
2023-03-16T14:01:12Z,5ckvwhwy,serial-reaction-time,1,P,1,0,56,3124,0,4,694.7000000178814,224,H
2023-03-16T14:01:13Z,5ckvwhwy,serial-reaction-time,1,R,1,1,57,3124,0,2,566.0999999940395,242,T
2023-03-16T14:01:13Z,5ckvwhwy,serial-reaction-time,NA,P,1,1,58,3124,0,3,435.09999999403954,423,H
2023-03-16T14:01:14Z,5ckvwhwy,serial-reaction-time,1,P,1,0,58,3124,0,3,811.6999999880791,423,H
2023-03-16T14:01:14Z,5ckvwhwy,serial-reaction-time,1,R,1,1,59,3124,0,2,589.0999999940395,232,T
2023-03-16T14:01:15Z,5ckvwhwy,serial-reaction-time,1,P,1,1,60,3124,0,1,358.7999999821186,321,H
2023-03-16T14:01:15Z,5ckvwhwy,serial-reaction-time,1,R,1,1,61,3124,0,1,355.5,211,L
2023-03-16T14:01:16Z,5ckvwhwy,serial-reaction-time,1,P,1,1,62,3124,0,2,517.9000000059605,112,H
2023-03-16T14:01:17Z,5ckvwhwy,serial-reaction-time,1,R,1,1,63,3124,0,3,507.7999999821186,123,L
2023-03-16T14:01:17Z,5ckvwhwy,serial-reaction-time,1,P,1,1,64,3124,0,4,399.59999999403954,234,H
2023-03-16T14:01:18Z,5ckvwhwy,serial-reaction-time,1,R,1,1,65,3124,0,2,496.89999997615814,342,L
2023-03-16T14:01:19Z,5ckvwhwy,serial-reaction-time,1,P,1,1,66,3124,0,3,682.8000000119209,423,H
2023-03-16T14:01:19Z,5ckvwhwy,serial-reaction-time,1,R,1,1,67,3124,0,1,405.09999999403954,231,L
2023-03-16T14:01:20Z,5ckvwhwy,serial-reaction-time,1,P,1,1,68,3124,0,1,329.5,311,H
2023-03-16T14:01:20Z,5ckvwhwy,serial-reaction-time,1,R,1,1,69,3124,0,2,540.6999999880791,112,H
2023-03-16T14:01:21Z,5ckvwhwy,serial-reaction-time,1,P,1,1,70,3124,0,2,293.90000000596046,122,H
2023-03-16T14:01:21Z,5ckvwhwy,serial-reaction-time,1,R,1,1,71,3124,0,2,404.5,222,R
2023-03-16T14:01:22Z,5ckvwhwy,serial-reaction-time,1,P,1,1,72,3124,0,4,505.699999988079,224,H
2023-03-16T14:01:23Z,5ckvwhwy,serial-reaction-time,1,R,1,1,73,3124,0,1,587.5,241,L
2023-03-16T14:01:23Z,5ckvwhwy,serial-reaction-time,1,P,1,1,74,3124,0,3,523.4000000059605,413,H
2023-03-16T14:01:24Z,5ckvwhwy,serial-reaction-time,1,R,1,1,75,3124,0,3,350.89999997615814,133,L
2023-03-16T14:01:25Z,5ckvwhwy,serial-reaction-time,NA,P,1,1,76,3124,0,1,380.800000011921,331,H
2023-03-16T14:01:25Z,5ckvwhwy,serial-reaction-time,1,P,1,0,76,3124,0,1,771.7000000178814,331,H
2023-03-16T14:01:26Z,5ckvwhwy,serial-reaction-time,1,R,1,1,77,3124,0,3,502.40000000596046,313,T
2023-03-16T14:01:26Z,5ckvwhwy,serial-reaction-time,NA,P,1,1,78,3124,0,2,538.4000000059605,132,H
2023-03-16T14:01:27Z,5ckvwhwy,serial-reaction-time,1,P,1,0,78,3124,0,2,824.0000000298023,132,H
2023-03-16T14:01:27Z,5ckvwhwy,serial-reaction-time,1,R,1,1,79,3124,0,4,399.09999999403954,324,L
2023-03-16T14:01:28Z,5ckvwhwy,serial-reaction-time,1,P,1,1,80,3124,0,4,390.40000000596046,244,H
2023-03-16T14:01:33Z,5ckvwhwy,html-keyboard-response,NA,NA,NA,NA,NA,NA,NA,NA,NA,NA,NA
2023-03-16T14:01:34Z,5ckvwhwy,html-keyboard-response,NA,NA,NA,NA,NA,NA,NA,NA,NA,NA,NA
2023-03-16T14:01:35Z,5ckvwhwy,serial-reaction-time,1,R,2,1,1,3124,0,4,497.90000000596046,4,X
2023-03-16T14:01:36Z,5ckvwhwy,serial-reaction-time,1,P,2,1,2,3124,0,3,408.40000000596046,43,X
2023-03-16T14:01:36Z,5ckvwhwy,serial-reaction-time,1,R,2,1,3,3124,0,2,377.59999999403954,432,L
2023-03-16T14:01:37Z,5ckvwhwy,serial-reaction-time,1,P,2,1,4,3124,0,1,299.60000002384186,321,H
2023-03-16T14:01:37Z,5ckvwhwy,serial-reaction-time,1,R,2,1,5,3124,0,1,415.300000011921,211,L
2023-03-16T14:01:38Z,5ckvwhwy,serial-reaction-time,1,P,2,1,6,3124,0,2,319.69999998807907,112,H
2023-03-16T14:01:38Z,5ckvwhwy,serial-reaction-time,1,R,2,1,7,3124,0,1,513.5,121,T
2023-03-16T14:01:39Z,5ckvwhwy,serial-reaction-time,1,P,2,1,8,3124,0,4,457.199999988079,214,H
2023-03-16T14:01:40Z,5ckvwhwy,serial-reaction-time,1,R,2,1,9,3124,0,2,890.5999999940395,142,H
2023-03-16T14:01:40Z,5ckvwhwy,serial-reaction-time,1,P,2,1,10,3124,0,3,325.09999999403954,423,H
2023-03-16T14:01:41Z,5ckvwhwy,serial-reaction-time,1,R,2,1,11,3124,0,2,588.6000000238419,232,T
2023-03-16T14:01:42Z,5ckvwhwy,serial-reaction-time,1,P,2,1,12,3124,0,1,435.90000000596046,321,H
2023-03-16T14:01:42Z,5ckvwhwy,serial-reaction-time,1,R,2,1,13,3124,0,2,388.800000011921,212,T
2023-03-16T14:01:43Z,5ckvwhwy,serial-reaction-time,1,P,2,1,14,3124,0,2,380.2000000178814,122,H
2023-03-16T14:01:43Z,5ckvwhwy,serial-reaction-time,1,R,2,1,15,3124,0,3,553.2000000178814,223,L
2023-03-16T14:01:44Z,5ckvwhwy,serial-reaction-time,1,P,2,1,16,3124,0,4,339.5,234,H
2023-03-16T14:01:44Z,5ckvwhwy,serial-reaction-time,1,R,2,1,17,3124,0,3,394.5,343,T
2023-03-16T14:01:45Z,5ckvwhwy,serial-reaction-time,1,P,2,1,18,3124,0,3,377.7000000178814,433,H
2023-03-16T14:01:45Z,5ckvwhwy,serial-reaction-time,1,R,2,1,19,3124,0,3,354.5,333,R
2023-03-16T14:01:46Z,5ckvwhwy,serial-reaction-time,1,P,2,1,20,3124,0,1,467.2999999821186,331,H
2023-03-16T14:01:47Z,5ckvwhwy,serial-reaction-time,1,R,2,1,21,3124,0,4,523.9000000059605,314,L
2023-03-16T14:01:47Z,5ckvwhwy,serial-reaction-time,1,P,2,1,22,3124,0,2,676.2000000178814,142,H
2023-03-16T14:01:48Z,5ckvwhwy,serial-reaction-time,1,R,2,1,23,3124,0,2,440.699999988079,422,L
2023-03-16T14:01:49Z,5ckvwhwy,serial-reaction-time,1,P,2,1,24,3124,0,4,459.40000000596046,224,H
2023-03-16T14:01:49Z,5ckvwhwy,serial-reaction-time,1,R,2,1,25,3124,0,2,527.0999999940395,242,T
2023-03-16T14:01:50Z,5ckvwhwy,serial-reaction-time,1,P,2,1,26,3124,0,3,746.4000000059605,423,H
2023-03-16T14:01:51Z,5ckvwhwy,serial-reaction-time,1,R,2,1,27,3124,0,1,464.2999999821186,231,L
2023-03-16T14:01:51Z,5ckvwhwy,serial-reaction-time,1,P,2,1,28,3124,0,1,472.199999988079,311,H
2023-03-16T14:01:52Z,5ckvwhwy,serial-reaction-time,1,R,2,1,29,3124,0,4,502.09999999403954,114,L
2023-03-16T14:01:53Z,5ckvwhwy,serial-reaction-time,1,P,2,1,30,3124,0,2,569.9000000059605,142,H
2023-03-16T14:01:53Z,5ckvwhwy,serial-reaction-time,1,R,2,1,31,3124,0,4,376.09999999403954,424,T
2023-03-16T14:01:54Z,5ckvwhwy,serial-reaction-time,1,P,2,1,32,3124,0,4,970.6999999880792,244,H
2023-03-16T14:01:55Z,5ckvwhwy,serial-reaction-time,1,R,2,1,33,3124,0,3,587.5999999940395,443,H
2023-03-16T14:01:56Z,5ckvwhwy,serial-reaction-time,1,P,2,1,34,3124,0,3,310.89999997615814,433,H
2023-03-16T14:01:56Z,5ckvwhwy,serial-reaction-time,1,R,2,1,35,3124,0,1,473.7999999821186,331,H
2023-03-16T14:01:57Z,5ckvwhwy,serial-reaction-time,1,P,2,1,36,3124,0,1,315.90000000596046,311,H
2023-03-16T14:01:57Z,5ckvwhwy,serial-reaction-time,1,R,2,1,37,3124,0,1,359.5,111,R
2023-03-16T14:01:58Z,5ckvwhwy,serial-reaction-time,1,P,2,1,38,3124,0,2,429.7000000178814,112,H
2023-03-16T14:01:58Z,5ckvwhwy,serial-reaction-time,1,R,2,1,39,3124,0,1,517.0999999940395,121,T
2023-03-16T14:01:59Z,5ckvwhwy,serial-reaction-time,1,P,2,1,40,3124,0,4,518.1999999880791,214,H
2023-03-16T14:02:00Z,5ckvwhwy,serial-reaction-time,1,R,2,1,41,3124,0,2,670.4000000059605,142,H
2023-03-16T14:02:01Z,5ckvwhwy,serial-reaction-time,1,P,2,1,42,3124,0,3,571.0999999940395,423,H
2023-03-16T14:02:01Z,5ckvwhwy,serial-reaction-time,1,R,2,1,43,3124,0,4,339.69999998807907,234,H
2023-03-16T14:02:02Z,5ckvwhwy,serial-reaction-time,1,P,2,1,44,3124,0,1,576.3000000119209,341,H
2023-03-16T14:02:02Z,5ckvwhwy,serial-reaction-time,1,R,2,1,45,3124,0,2,348,412,L
2023-03-16T14:02:03Z,5ckvwhwy,serial-reaction-time,1,P,2,1,46,3124,0,2,570.2000000178814,122,H
2023-03-16T14:02:04Z,5ckvwhwy,serial-reaction-time,1,R,2,1,47,3124,0,2,556.5999999940395,222,R
2023-03-16T14:02:04Z,5ckvwhwy,serial-reaction-time,1,P,2,1,48,3124,0,4,406.89999997615814,224,H
2023-03-16T14:02:05Z,5ckvwhwy,serial-reaction-time,1,R,2,1,49,3124,0,4,353,244,H
2023-03-16T14:02:05Z,5ckvwhwy,serial-reaction-time,1,P,2,1,50,3124,0,3,411.09999999403954,443,H
2023-03-16T14:02:06Z,5ckvwhwy,serial-reaction-time,1,R,2,1,51,3124,0,1,456.5,431,L
2023-03-16T14:02:06Z,5ckvwhwy,serial-reaction-time,1,P,2,1,52,3124,0,1,281.80000001192093,311,H
2023-03-16T14:02:07Z,5ckvwhwy,serial-reaction-time,1,R,2,1,53,3124,0,2,424.2000000178814,112,H
2023-03-16T14:02:07Z,5ckvwhwy,serial-reaction-time,1,P,2,1,54,3124,0,2,290.90000000596046,122,H
2023-03-16T14:02:08Z,5ckvwhwy,serial-reaction-time,1,R,2,1,55,3124,0,2,379.40000000596046,222,R
2023-03-16T14:02:08Z,5ckvwhwy,serial-reaction-time,1,P,2,1,56,3124,0,4,404.300000011921,224,H
2023-03-16T14:02:09Z,5ckvwhwy,serial-reaction-time,NA,R,2,1,57,3124,0,1,420.89999997615814,241,L
2023-03-16T14:02:09Z,5ckvwhwy,serial-reaction-time,1,R,2,0,57,3124,0,1,708.9999999701977,241,L
2023-03-16T14:02:10Z,5ckvwhwy,serial-reaction-time,1,P,2,1,58,3124,0,3,432,413,H
2023-03-16T14:02:10Z,5ckvwhwy,serial-reaction-time,1,R,2,1,59,3124,0,2,390.40000000596046,132,H
2023-03-16T14:02:11Z,5ckvwhwy,serial-reaction-time,1,P,2,1,60,3124,0,1,380.300000011921,321,H
2023-03-16T14:02:11Z,5ckvwhwy,serial-reaction-time,1,R,2,1,61,3124,0,4,352.09999999403954,214,H
2023-03-16T14:02:12Z,5ckvwhwy,serial-reaction-time,1,P,2,1,62,3124,0,2,491.40000000596046,142,H
2023-03-16T14:02:13Z,5ckvwhwy,serial-reaction-time,1,R,2,1,63,3124,0,1,454.7000000178814,421,L
2023-03-16T14:02:13Z,5ckvwhwy,serial-reaction-time,1,P,2,1,64,3124,0,4,368.199999988079,214,H
2023-03-16T14:02:14Z,5ckvwhwy,serial-reaction-time,1,R,2,1,65,3124,0,4,377,144,L
2023-03-16T14:02:14Z,5ckvwhwy,serial-reaction-time,1,P,2,1,66,3124,0,3,540,443,H
2023-03-16T14:02:15Z,5ckvwhwy,serial-reaction-time,NA,R,2,1,67,3124,0,4,313.5,434,T
2023-03-16T14:02:15Z,5ckvwhwy,serial-reaction-time,1,R,2,0,67,3124,0,4,628.5,434,T
2023-03-16T14:02:16Z,5ckvwhwy,serial-reaction-time,1,P,2,1,68,3124,0,1,454.7000000178814,341,H
2023-03-16T14:02:16Z,5ckvwhwy,serial-reaction-time,1,R,2,1,69,3124,0,3,614,413,H
2023-03-16T14:02:17Z,5ckvwhwy,serial-reaction-time,1,P,2,1,70,3124,0,2,381.59999999403954,132,H
2023-03-16T14:02:18Z,5ckvwhwy,serial-reaction-time,NA,R,2,1,71,3124,0,3,414.90000000596046,323,T
2023-03-16T14:02:18Z,5ckvwhwy,serial-reaction-time,1,R,2,0,71,3124,0,3,800.8000000119209,323,T
2023-03-16T14:02:19Z,5ckvwhwy,serial-reaction-time,1,P,2,1,72,3124,0,4,430.09999999403954,234,H
2023-03-16T14:02:19Z,5ckvwhwy,serial-reaction-time,1,R,2,1,73,3124,0,3,504.60000002384186,343,T
2023-03-16T14:02:20Z,5ckvwhwy,serial-reaction-time,1,P,2,1,74,3124,0,3,315.5,433,H
2023-03-16T14:02:20Z,5ckvwhwy,serial-reaction-time,1,R,2,1,75,3124,0,4,342.59999999403954,334,L
2023-03-16T14:02:21Z,5ckvwhwy,serial-reaction-time,1,P,2,1,76,3124,0,1,453.09999999403954,341,H
2023-03-16T14:02:21Z,5ckvwhwy,serial-reaction-time,1,R,2,1,77,3124,0,1,292.80000001192093,411,L
2023-03-16T14:02:22Z,5ckvwhwy,serial-reaction-time,1,P,2,1,78,3124,0,2,440.199999988079,112,H
2023-03-16T14:02:22Z,5ckvwhwy,serial-reaction-time,1,R,2,1,79,3124,0,1,494.09999999403954,121,T
2023-03-16T14:02:23Z,5ckvwhwy,serial-reaction-time,1,P,2,1,80,3124,0,4,419.5,214,H
2023-03-16T14:02:28Z,5ckvwhwy,html-keyboard-response,NA,NA,NA,NA,NA,NA,NA,NA,NA,NA,NA
2023-03-16T14:02:29Z,5ckvwhwy,html-keyboard-response,NA,NA,NA,NA,NA,NA,NA,NA,NA,NA,NA
2023-03-16T14:02:31Z,5ckvwhwy,serial-reaction-time,1,R,3,1,1,3124,0,2,905.3000000119208,2,X
2023-03-16T14:02:31Z,5ckvwhwy,serial-reaction-time,1,P,3,1,2,3124,0,3,377.59999999403954,23,X
2023-03-16T14:02:32Z,5ckvwhwy,serial-reaction-time,1,R,3,1,3,3124,0,3,315.69999998807907,233,L
2023-03-16T14:02:32Z,5ckvwhwy,serial-reaction-time,1,P,3,1,4,3124,0,1,491.199999988079,331,H
2023-03-16T14:02:33Z,5ckvwhwy,serial-reaction-time,1,R,3,1,5,3124,0,4,427.699999988079,314,L
2023-03-16T14:02:34Z,5ckvwhwy,serial-reaction-time,1,P,3,1,6,3124,0,2,444.199999988079,142,H
2023-03-16T14:02:34Z,5ckvwhwy,serial-reaction-time,1,R,3,1,7,3124,0,1,463.5,421,L
2023-03-16T14:02:35Z,5ckvwhwy,serial-reaction-time,1,P,3,1,8,3124,0,4,464.800000011921,214,H
2023-03-16T14:02:35Z,5ckvwhwy,serial-reaction-time,1,R,3,1,9,3124,0,1,455.800000011921,141,T
2023-03-16T14:02:36Z,5ckvwhwy,serial-reaction-time,1,P,3,1,10,3124,0,3,434.7000000178814,413,H
2023-03-16T14:02:36Z,5ckvwhwy,serial-reaction-time,1,R,3,1,11,3124,0,2,405.699999988079,132,H
2023-03-16T14:02:37Z,5ckvwhwy,serial-reaction-time,1,P,3,1,12,3124,0,1,354,321,H
2023-03-16T14:02:37Z,5ckvwhwy,serial-reaction-time,NA,R,3,1,13,3124,0,3,302.90000000596046,213,L
2023-03-16T14:02:38Z,5ckvwhwy,serial-reaction-time,1,R,3,0,13,3124,0,3,612.6000000238419,213,L
2023-03-16T14:02:38Z,5ckvwhwy,serial-reaction-time,1,P,3,1,14,3124,0,2,412.09999999403954,132,H
2023-03-16T14:02:39Z,5ckvwhwy,serial-reaction-time,1,R,3,1,15,3124,0,2,346.80000001192093,322,L
2023-03-16T14:02:39Z,5ckvwhwy,serial-reaction-time,1,P,3,1,16,3124,0,4,373.09999999403954,224,H
2023-03-16T14:02:40Z,5ckvwhwy,serial-reaction-time,1,R,3,1,17,3124,0,2,419.699999988079,242,T
2023-03-16T14:02:40Z,5ckvwhwy,serial-reaction-time,1,P,3,1,18,3124,0,3,297.69999998807907,423,H
2023-03-16T14:02:41Z,5ckvwhwy,serial-reaction-time,1,R,3,1,19,3124,0,4,360.59999999403954,234,H
2023-03-16T14:02:41Z,5ckvwhwy,serial-reaction-time,NA,P,3,1,20,3124,0,1,399,341,H
2023-03-16T14:02:42Z,5ckvwhwy,serial-reaction-time,1,P,3,0,20,3124,0,1,656.0999999940395,341,H
2023-03-16T14:02:42Z,5ckvwhwy,serial-reaction-time,1,R,3,1,21,3124,0,3,508.59999999403954,413,H
2023-03-16T14:02:43Z,5ckvwhwy,serial-reaction-time,1,P,3,1,22,3124,0,2,564.0999999940395,132,H
2023-03-16T14:02:44Z,5ckvwhwy,serial-reaction-time,1,R,3,1,23,3124,0,4,418.5,324,L
2023-03-16T14:02:44Z,5ckvwhwy,serial-reaction-time,1,P,3,1,24,3124,0,4,466.09999999403954,244,H
2023-03-16T14:02:45Z,5ckvwhwy,serial-reaction-time,1,R,3,1,25,3124,0,3,495.199999988079,443,H
2023-03-16T14:02:45Z,5ckvwhwy,serial-reaction-time,1,P,3,1,26,3124,0,3,286.90000000596046,433,H
2023-03-16T14:02:46Z,5ckvwhwy,serial-reaction-time,1,R,3,1,27,3124,0,1,398.2000000178814,331,H
2023-03-16T14:02:46Z,5ckvwhwy,serial-reaction-time,1,P,3,1,28,3124,0,1,278.59999999403954,311,H
2023-03-16T14:02:47Z,5ckvwhwy,serial-reaction-time,1,R,3,1,29,3124,0,4,541.8000000119209,114,L
2023-03-16T14:02:47Z,5ckvwhwy,serial-reaction-time,1,P,3,1,30,3124,0,2,403.2000000178814,142,H
2023-03-16T14:02:48Z,5ckvwhwy,serial-reaction-time,1,R,3,1,31,3124,0,3,657,423,H
2023-03-16T14:02:49Z,5ckvwhwy,serial-reaction-time,1,P,3,1,32,3124,0,4,335.89999997615814,234,H
2023-03-16T14:02:49Z,5ckvwhwy,serial-reaction-time,1,R,3,1,33,3124,0,4,351.39999997615814,344,L
2023-03-16T14:02:50Z,5ckvwhwy,serial-reaction-time,1,P,3,1,34,3124,0,3,422.699999988079,443,H
2023-03-16T14:02:50Z,5ckvwhwy,serial-reaction-time,1,R,3,1,35,3124,0,1,461.59999999403954,431,L
2023-03-16T14:02:51Z,5ckvwhwy,serial-reaction-time,1,P,3,1,36,3124,0,1,295.7999999821186,311,H
2023-03-16T14:02:51Z,5ckvwhwy,serial-reaction-time,1,R,3,1,37,3124,0,1,371.2999999821186,111,R
2023-03-16T14:02:52Z,5ckvwhwy,serial-reaction-time,1,P,3,1,38,3124,0,2,425.59999999403954,112,H
2023-03-16T14:02:53Z,5ckvwhwy,serial-reaction-time,1,R,3,1,39,3124,0,4,585.6999999880791,124,L
2023-03-16T14:02:53Z,5ckvwhwy,serial-reaction-time,1,P,3,1,40,3124,0,4,349.39999997615814,244,H
2023-03-16T14:02:54Z,5ckvwhwy,serial-reaction-time,1,R,3,1,41,3124,0,4,331.09999999403954,444,R
2023-03-16T14:02:54Z,5ckvwhwy,serial-reaction-time,1,P,3,1,42,3124,0,3,417.60000002384186,443,H
2023-03-16T14:02:55Z,5ckvwhwy,serial-reaction-time,1,R,3,1,43,3124,0,3,312.09999999403954,433,H
2023-03-16T14:02:55Z,5ckvwhwy,serial-reaction-time,1,P,3,1,44,3124,0,1,574.6999999880791,331,H
2023-03-16T14:02:56Z,5ckvwhwy,serial-reaction-time,1,R,3,1,45,3124,0,1,256.80000001192093,311,H
2023-03-16T14:02:56Z,5ckvwhwy,serial-reaction-time,1,P,3,1,46,3124,0,2,436.2999999821186,112,H
2023-03-16T14:02:57Z,5ckvwhwy,serial-reaction-time,1,R,3,1,47,3124,0,3,538,123,L
2023-03-16T14:02:57Z,5ckvwhwy,serial-reaction-time,1,P,3,1,48,3124,0,4,418.59999999403954,234,H
2023-03-16T14:02:58Z,5ckvwhwy,serial-reaction-time,1,R,3,1,49,3124,0,3,477.7999999821186,343,T
2023-03-16T14:02:59Z,5ckvwhwy,serial-reaction-time,1,P,3,1,50,3124,0,3,346.09999999403954,433,H
2023-03-16T14:02:59Z,5ckvwhwy,serial-reaction-time,1,R,3,1,51,3124,0,2,444.7999999821186,332,L
2023-03-16T14:03:00Z,5ckvwhwy,serial-reaction-time,1,P,3,1,52,3124,0,1,429.699999988079,321,H
2023-03-16T14:03:00Z,5ckvwhwy,serial-reaction-time,1,R,3,1,53,3124,0,3,486.90000000596046,213,L
2023-03-16T14:03:01Z,5ckvwhwy,serial-reaction-time,1,P,3,1,54,3124,0,2,518.0999999940395,132,H
2023-03-16T14:03:02Z,5ckvwhwy,serial-reaction-time,1,R,3,1,55,3124,0,1,413.199999988079,321,H
2023-03-16T14:03:02Z,5ckvwhwy,serial-reaction-time,1,P,3,1,56,3124,0,4,524.5999999940395,214,H
2023-03-16T14:03:03Z,5ckvwhwy,serial-reaction-time,1,R,3,1,57,3124,0,3,363.199999988079,143,L
2023-03-16T14:03:03Z,5ckvwhwy,serial-reaction-time,1,P,3,1,58,3124,0,3,359.5,433,H
2023-03-16T14:03:04Z,5ckvwhwy,serial-reaction-time,1,R,3,1,59,3124,0,1,379.09999999403954,331,H
2023-03-16T14:03:04Z,5ckvwhwy,serial-reaction-time,1,P,3,1,60,3124,0,1,335.40000000596046,311,H
2023-03-16T14:03:05Z,5ckvwhwy,serial-reaction-time,1,R,3,1,61,3124,0,1,335.40000000596046,111,R
2023-03-16T14:03:05Z,5ckvwhwy,serial-reaction-time,1,P,3,1,62,3124,0,2,372.40000000596046,112,H
2023-03-16T14:03:06Z,5ckvwhwy,serial-reaction-time,1,R,3,1,63,3124,0,1,543.9000000059605,121,T
2023-03-16T14:03:06Z,5ckvwhwy,serial-reaction-time,1,P,3,1,64,3124,0,4,448.09999999403954,214,H
2023-03-16T14:03:07Z,5ckvwhwy,serial-reaction-time,NA,R,3,1,65,3124,0,1,506.90000000596046,141,T
2023-03-16T14:03:07Z,5ckvwhwy,serial-reaction-time,1,R,3,0,65,3124,0,1,832.0999999940395,141,T
2023-03-16T14:03:08Z,5ckvwhwy,serial-reaction-time,1,P,3,1,66,3124,0,3,431.90000000596046,413,H
2023-03-16T14:03:09Z,5ckvwhwy,serial-reaction-time,NA,R,3,1,67,3124,0,2,479.300000011921,132,H
2023-03-16T14:03:09Z,5ckvwhwy,serial-reaction-time,1,R,3,0,67,3124,0,2,776.1000000238419,132,H
2023-03-16T14:03:10Z,5ckvwhwy,serial-reaction-time,1,P,3,1,68,3124,0,1,414.800000011921,321,H
2023-03-16T14:03:10Z,5ckvwhwy,serial-reaction-time,1,R,3,1,69,3124,0,2,443.5,212,T
2023-03-16T14:03:11Z,5ckvwhwy,serial-reaction-time,1,P,3,1,70,3124,0,2,355.5,122,H
2023-03-16T14:03:11Z,5ckvwhwy,serial-reaction-time,1,R,3,1,71,3124,0,4,341.60000002384186,224,H
2023-03-16T14:03:12Z,5ckvwhwy,serial-reaction-time,1,P,3,1,72,3124,0,4,330.40000000596046,244,H
2023-03-16T14:03:12Z,5ckvwhwy,serial-reaction-time,1,R,3,1,73,3124,0,1,461.40000000596046,441,L
2023-03-16T14:03:13Z,5ckvwhwy,serial-reaction-time,1,P,3,1,74,3124,0,3,546.9000000059605,413,H
2023-03-16T14:03:13Z,5ckvwhwy,serial-reaction-time,1,R,3,1,75,3124,0,4,444.59999999403954,134,L
2023-03-16T14:03:14Z,5ckvwhwy,serial-reaction-time,1,P,3,1,76,3124,0,1,556.5,341,H
2023-03-16T14:03:15Z,5ckvwhwy,serial-reaction-time,1,R,3,1,77,3124,0,3,401.90000000596046,413,H
2023-03-16T14:03:15Z,5ckvwhwy,serial-reaction-time,1,P,3,1,78,3124,0,2,529.1000000238419,132,H
2023-03-16T14:03:16Z,5ckvwhwy,serial-reaction-time,1,R,3,1,79,3124,0,2,506.09999999403954,322,L
2023-03-16T14:03:16Z,5ckvwhwy,serial-reaction-time,1,P,3,1,80,3124,0,4,338.69999998807907,224,H
2023-03-16T14:03:21Z,5ckvwhwy,html-keyboard-response,NA,NA,NA,NA,NA,NA,NA,NA,NA,NA,NA
2023-03-16T14:03:22Z,5ckvwhwy,html-keyboard-response,NA,NA,NA,NA,NA,NA,NA,NA,NA,NA,NA
2023-03-16T14:03:24Z,5ckvwhwy,serial-reaction-time,1,R,4,1,1,3124,0,1,661.1999999880791,1,X
2023-03-16T14:03:25Z,5ckvwhwy,serial-reaction-time,1,P,4,1,2,3124,0,3,421.2000000178814,13,X
2023-03-16T14:03:25Z,5ckvwhwy,serial-reaction-time,1,R,4,1,3,3124,0,4,409.300000011921,134,L
2023-03-16T14:03:26Z,5ckvwhwy,serial-reaction-time,1,P,4,1,4,3124,0,1,497.90000000596046,341,H
2023-03-16T14:03:26Z,5ckvwhwy,serial-reaction-time,1,R,4,1,5,3124,0,2,372.2000000178814,412,L
2023-03-16T14:03:27Z,5ckvwhwy,serial-reaction-time,1,P,4,1,6,3124,0,2,335.30000001192093,122,H
2023-03-16T14:03:27Z,5ckvwhwy,serial-reaction-time,1,R,4,1,7,3124,0,1,410.5,221,L
2023-03-16T14:03:28Z,5ckvwhwy,serial-reaction-time,1,P,4,1,8,3124,0,4,493.90000000596046,214,H
2023-03-16T14:03:28Z,5ckvwhwy,serial-reaction-time,1,R,4,1,9,3124,0,3,412,143,L
2023-03-16T14:03:29Z,5ckvwhwy,serial-reaction-time,1,P,4,1,10,3124,0,3,319.19999998807907,433,H
2023-03-16T14:03:29Z,5ckvwhwy,serial-reaction-time,1,R,4,1,11,3124,0,3,361.800000011921,333,R
2023-03-16T14:03:30Z,5ckvwhwy,serial-reaction-time,1,P,4,1,12,3124,0,1,542.7000000178814,331,H
2023-03-16T14:03:31Z,5ckvwhwy,serial-reaction-time,1,R,4,1,13,3124,0,1,311.19999998807907,311,H
2023-03-16T14:03:31Z,5ckvwhwy,serial-reaction-time,1,P,4,1,14,3124,0,2,382.90000000596046,112,H
2023-03-16T14:03:32Z,5ckvwhwy,serial-reaction-time,NA,R,4,1,15,3124,0,1,503.5,121,T
2023-03-16T14:03:32Z,5ckvwhwy,serial-reaction-time,1,R,4,0,15,3124,0,1,504,121,T
2023-03-16T14:03:32Z,5ckvwhwy,serial-reaction-time,1,P,4,1,16,3124,0,4,492.89999997615814,214,H
2023-03-16T14:03:33Z,5ckvwhwy,serial-reaction-time,1,R,4,1,17,3124,0,4,366.699999988079,144,L
2023-03-16T14:03:33Z,5ckvwhwy,serial-reaction-time,1,P,4,1,18,3124,0,3,388.40000000596046,443,H
2023-03-16T14:03:34Z,5ckvwhwy,serial-reaction-time,1,R,4,1,19,3124,0,3,290,433,H
2023-03-16T14:03:34Z,5ckvwhwy,serial-reaction-time,1,P,4,1,20,3124,0,1,402.59999999403954,331,H
2023-03-16T14:03:35Z,5ckvwhwy,serial-reaction-time,1,R,4,1,21,3124,0,3,368.800000011921,313,T
2023-03-16T14:03:36Z,5ckvwhwy,serial-reaction-time,1,P,4,1,22,3124,0,2,565.1999999880791,132,H
2023-03-16T14:03:36Z,5ckvwhwy,serial-reaction-time,1,R,4,1,23,3124,0,3,395.2000000178814,323,T
2023-03-16T14:03:37Z,5ckvwhwy,serial-reaction-time,1,P,4,1,24,3124,0,4,440.59999999403954,234,H
2023-03-16T14:03:37Z,5ckvwhwy,serial-reaction-time,1,R,4,1,25,3124,0,3,392.40000000596046,343,T
2023-03-16T14:03:38Z,5ckvwhwy,serial-reaction-time,1,P,4,1,26,3124,0,3,318.7999999821186,433,H
2023-03-16T14:03:38Z,5ckvwhwy,serial-reaction-time,1,R,4,1,27,3124,0,4,339.80000001192093,334,L
2023-03-16T14:03:39Z,5ckvwhwy,serial-reaction-time,1,P,4,1,28,3124,0,1,470.2999999821186,341,H
2023-03-16T14:03:40Z,5ckvwhwy,serial-reaction-time,1,R,4,1,29,3124,0,4,548.5,414,T
2023-03-16T14:03:40Z,5ckvwhwy,serial-reaction-time,1,P,4,1,30,3124,0,2,735,142,H
2023-03-16T14:03:41Z,5ckvwhwy,serial-reaction-time,1,R,4,1,31,3124,0,4,367.39999997615814,424,T
2023-03-16T14:03:41Z,5ckvwhwy,serial-reaction-time,1,P,4,1,32,3124,0,4,342.40000000596046,244,H
2023-03-16T14:03:42Z,5ckvwhwy,serial-reaction-time,1,R,4,1,33,3124,0,1,444.7999999821186,441,L
2023-03-16T14:03:43Z,5ckvwhwy,serial-reaction-time,1,P,4,1,34,3124,0,3,662.9000000059605,413,H
2023-03-16T14:03:44Z,5ckvwhwy,serial-reaction-time,1,R,4,1,35,3124,0,3,838.4000000059605,133,L
2023-03-16T14:03:44Z,5ckvwhwy,serial-reaction-time,1,P,4,1,36,3124,0,1,544.5,331,H
2023-03-16T14:03:45Z,5ckvwhwy,serial-reaction-time,1,R,4,1,37,3124,0,1,406.40000000596046,311,H
2023-03-16T14:03:46Z,5ckvwhwy,serial-reaction-time,1,P,4,1,38,3124,0,2,664.5999999940395,112,H
2023-03-16T14:03:47Z,5ckvwhwy,serial-reaction-time,1,R,4,1,39,3124,0,1,702.6000000238419,121,T
2023-03-16T14:03:47Z,5ckvwhwy,serial-reaction-time,1,P,4,1,40,3124,0,4,593.1999999880791,214,H
2023-03-16T14:03:48Z,5ckvwhwy,serial-reaction-time,1,R,4,1,41,3124,0,1,473.2000000178814,141,T
2023-03-16T14:03:49Z,5ckvwhwy,serial-reaction-time,1,P,4,1,42,3124,0,3,570.5999999940395,413,H
2023-03-16T14:03:49Z,5ckvwhwy,serial-reaction-time,1,R,4,1,43,3124,0,1,468.800000011921,131,T
2023-03-16T14:03:50Z,5ckvwhwy,serial-reaction-time,1,P,4,1,44,3124,0,1,338.7999999821186,311,H
2023-03-16T14:03:50Z,5ckvwhwy,serial-reaction-time,1,R,4,1,45,3124,0,3,383.59999999403954,113,L
2023-03-16T14:03:51Z,5ckvwhwy,serial-reaction-time,NA,P,4,1,46,3124,0,2,392.2999999821186,132,H
2023-03-16T14:03:51Z,5ckvwhwy,serial-reaction-time,1,P,4,0,46,3124,0,2,812.6999999880791,132,H
2023-03-16T14:03:52Z,5ckvwhwy,serial-reaction-time,1,R,4,1,47,3124,0,2,313.19999998807907,322,L
2023-03-16T14:03:52Z,5ckvwhwy,serial-reaction-time,NA,P,4,1,48,3124,0,4,564.2999999821186,224,H
2023-03-16T14:03:53Z,5ckvwhwy,serial-reaction-time,1,P,4,0,48,3124,0,4,871.0999999642372,224,H
2023-03-16T14:03:53Z,5ckvwhwy,serial-reaction-time,1,R,4,1,49,3124,0,4,300.30000001192093,244,H
2023-03-16T14:03:54Z,5ckvwhwy,serial-reaction-time,1,P,4,1,50,3124,0,3,423.09999999403954,443,H
2023-03-16T14:03:55Z,5ckvwhwy,serial-reaction-time,1,R,4,1,51,3124,0,2,595.0999999940395,432,L
2023-03-16T14:03:55Z,5ckvwhwy,serial-reaction-time,1,P,4,1,52,3124,0,1,379.09999999403954,321,H
2023-03-16T14:03:56Z,5ckvwhwy,serial-reaction-time,1,R,4,1,53,3124,0,3,539.7000000178814,213,L
2023-03-16T14:03:56Z,5ckvwhwy,serial-reaction-time,1,P,4,1,54,3124,0,2,320.59999999403954,132,H
2023-03-16T14:03:57Z,5ckvwhwy,serial-reaction-time,NA,R,4,1,55,3124,0,1,278.40000000596046,321,H
2023-03-16T14:03:57Z,5ckvwhwy,serial-reaction-time,NA,R,4,0,55,3124,0,1,674.4000000059605,321,H
2023-03-16T14:03:57Z,5ckvwhwy,serial-reaction-time,1,R,4,0,55,3124,0,1,675.0999999940395,321,H
2023-03-16T14:03:58Z,5ckvwhwy,serial-reaction-time,1,P,4,1,56,3124,0,4,430.300000011921,214,H
2023-03-16T14:03:58Z,5ckvwhwy,serial-reaction-time,1,R,4,1,57,3124,0,4,375.59999999403954,144,L
2023-03-16T14:03:59Z,5ckvwhwy,serial-reaction-time,1,P,4,1,58,3124,0,3,403.800000011921,443,H
2023-03-16T14:03:59Z,5ckvwhwy,serial-reaction-time,1,R,4,1,59,3124,0,3,291.10000002384186,433,H
2023-03-16T14:04:00Z,5ckvwhwy,serial-reaction-time,1,P,4,1,60,3124,0,1,419.5,331,H
2023-03-16T14:04:00Z,5ckvwhwy,serial-reaction-time,1,R,4,1,61,3124,0,1,303.80000001192093,311,H
2023-03-16T14:04:01Z,5ckvwhwy,serial-reaction-time,1,P,4,1,62,3124,0,2,453,112,H
2023-03-16T14:04:01Z,5ckvwhwy,serial-reaction-time,1,R,4,1,63,3124,0,1,502.699999988079,121,T
2023-03-16T14:04:02Z,5ckvwhwy,serial-reaction-time,1,P,4,1,64,3124,0,4,566.4000000059605,214,H
2023-03-16T14:04:03Z,5ckvwhwy,serial-reaction-time,1,R,4,1,65,3124,0,1,603.8000000119209,141,T
2023-03-16T14:04:04Z,5ckvwhwy,serial-reaction-time,1,P,4,1,66,3124,0,3,574.7000000178814,413,H
2023-03-16T14:04:04Z,5ckvwhwy,serial-reaction-time,NA,R,4,1,67,3124,0,1,409,131,T
2023-03-16T14:04:04Z,5ckvwhwy,serial-reaction-time,1,R,4,0,67,3124,0,1,767.0999999940395,131,T
2023-03-16T14:04:05Z,5ckvwhwy,serial-reaction-time,1,P,4,1,68,3124,0,1,388.7000000178814,311,H
2023-03-16T14:04:06Z,5ckvwhwy,serial-reaction-time,1,R,4,1,69,3124,0,2,558.0999999940395,112,H
2023-03-16T14:04:06Z,5ckvwhwy,serial-reaction-time,1,P,4,1,70,3124,0,2,338.2000000178814,122,H
2023-03-16T14:04:07Z,5ckvwhwy,serial-reaction-time,1,R,4,1,71,3124,0,3,561.8000000119209,223,L
2023-03-16T14:04:07Z,5ckvwhwy,serial-reaction-time,1,P,4,1,72,3124,0,4,415.59999999403954,234,H
2023-03-16T14:04:08Z,5ckvwhwy,serial-reaction-time,1,R,4,1,73,3124,0,2,730,342,L
2023-03-16T14:04:09Z,5ckvwhwy,serial-reaction-time,1,P,4,1,74,3124,0,3,495.800000011921,423,H
2023-03-16T14:04:09Z,5ckvwhwy,serial-reaction-time,1,R,4,1,75,3124,0,3,368.40000000596046,233,L
2023-03-16T14:04:10Z,5ckvwhwy,serial-reaction-time,1,P,4,1,76,3124,0,1,493,331,H
2023-03-16T14:04:10Z,5ckvwhwy,serial-reaction-time,1,R,4,1,77,3124,0,1,231.5999999940395,311,H
2023-03-16T14:04:11Z,5ckvwhwy,serial-reaction-time,1,P,4,1,78,3124,0,2,363.300000011921,112,H
2023-03-16T14:04:11Z,5ckvwhwy,serial-reaction-time,1,R,4,1,79,3124,0,2,295.69999998807907,122,H
2023-03-16T14:04:12Z,5ckvwhwy,serial-reaction-time,1,P,4,1,80,3124,0,4,453.90000000596046,224,H
2023-03-16T14:04:17Z,5ckvwhwy,html-keyboard-response,NA,NA,NA,NA,NA,NA,NA,NA,NA,NA,NA
2023-03-16T14:04:18Z,5ckvwhwy,html-keyboard-response,NA,NA,NA,NA,NA,NA,NA,NA,NA,NA,NA
2023-03-16T14:04:20Z,5ckvwhwy,serial-reaction-time,1,R,5,1,1,3124,0,2,1140.2999999821186,2,X
2023-03-16T14:04:20Z,5ckvwhwy,serial-reaction-time,1,P,5,1,2,3124,0,3,381,23,X
2023-03-16T14:04:21Z,5ckvwhwy,serial-reaction-time,1,R,5,1,3,3124,0,1,468.5,231,L
2023-03-16T14:04:22Z,5ckvwhwy,serial-reaction-time,1,P,5,1,4,3124,0,1,458.09999999403954,311,H
2023-03-16T14:04:22Z,5ckvwhwy,serial-reaction-time,1,R,5,1,5,3124,0,3,460.300000011921,113,L
2023-03-16T14:04:23Z,5ckvwhwy,serial-reaction-time,1,P,5,1,6,3124,0,2,349,132,H
2023-03-16T14:04:23Z,5ckvwhwy,serial-reaction-time,1,R,5,1,7,3124,0,1,329.09999999403954,321,H
2023-03-16T14:04:24Z,5ckvwhwy,serial-reaction-time,1,P,5,1,8,3124,0,4,462.89999997615814,214,H
2023-03-16T14:04:25Z,5ckvwhwy,serial-reaction-time,1,R,5,1,9,3124,0,1,543.6000000238419,141,T
2023-03-16T14:04:25Z,5ckvwhwy,serial-reaction-time,1,P,5,1,10,3124,0,3,449.60000002384186,413,H
2023-03-16T14:04:26Z,5ckvwhwy,serial-reaction-time,1,R,5,1,11,3124,0,4,446.199999988079,134,L
2023-03-16T14:04:26Z,5ckvwhwy,serial-reaction-time,1,P,5,1,12,3124,0,1,390.2999999821186,341,H
2023-03-16T14:04:27Z,5ckvwhwy,serial-reaction-time,1,R,5,1,13,3124,0,2,361.2999999821186,412,L
2023-03-16T14:04:27Z,5ckvwhwy,serial-reaction-time,1,P,5,1,14,3124,0,2,390,122,H
2023-03-16T14:04:28Z,5ckvwhwy,serial-reaction-time,1,R,5,1,15,3124,0,2,439.90000000596046,222,R
2023-03-16T14:04:28Z,5ckvwhwy,serial-reaction-time,1,P,5,1,16,3124,0,4,423.199999988079,224,H
2023-03-16T14:04:29Z,5ckvwhwy,serial-reaction-time,1,R,5,1,17,3124,0,1,667,241,L
2023-03-16T14:04:30Z,5ckvwhwy,serial-reaction-time,1,P,5,1,18,3124,0,3,379.5,413,H
2023-03-16T14:04:30Z,5ckvwhwy,serial-reaction-time,1,R,5,1,19,3124,0,4,384.90000000596046,134,L
2023-03-16T14:04:31Z,5ckvwhwy,serial-reaction-time,1,P,5,1,20,3124,0,1,315,341,H
2023-03-16T14:04:31Z,5ckvwhwy,serial-reaction-time,1,R,5,1,21,3124,0,4,512.2999999821186,414,T
2023-03-16T14:04:32Z,5ckvwhwy,serial-reaction-time,1,P,5,1,22,3124,0,2,597,142,H
2023-03-16T14:04:33Z,5ckvwhwy,serial-reaction-time,1,R,5,1,23,3124,0,2,332.30000001192093,422,L
2023-03-16T14:04:33Z,5ckvwhwy,serial-reaction-time,1,P,5,1,24,3124,0,4,362.40000000596046,224,H
2023-03-16T14:04:34Z,5ckvwhwy,serial-reaction-time,1,R,5,1,25,3124,0,4,444,244,H
2023-03-16T14:04:34Z,5ckvwhwy,serial-reaction-time,1,P,5,1,26,3124,0,3,641.5,443,H
2023-03-16T14:04:35Z,5ckvwhwy,serial-reaction-time,1,R,5,1,27,3124,0,2,579.7000000178814,432,L
2023-03-16T14:04:36Z,5ckvwhwy,serial-reaction-time,1,P,5,1,28,3124,0,1,338.30000001192093,321,H
2023-03-16T14:04:36Z,5ckvwhwy,serial-reaction-time,1,R,5,1,29,3124,0,4,459.699999988079,214,H
2023-03-16T14:04:37Z,5ckvwhwy,serial-reaction-time,1,P,5,1,30,3124,0,2,484.59999999403954,142,H
2023-03-16T14:04:37Z,5ckvwhwy,serial-reaction-time,1,R,5,1,31,3124,0,2,387.2000000178814,422,L
2023-03-16T14:04:38Z,5ckvwhwy,serial-reaction-time,1,P,5,1,32,3124,0,4,376.7999999821186,224,H
2023-03-16T14:04:39Z,5ckvwhwy,serial-reaction-time,1,R,5,1,33,3124,0,2,436.2999999821186,242,T
2023-03-16T14:04:39Z,5ckvwhwy,serial-reaction-time,NA,P,5,1,34,3124,0,3,457.40000000596046,423,H
2023-03-16T14:04:40Z,5ckvwhwy,serial-reaction-time,1,P,5,0,34,3124,0,3,824.7000000178814,423,H
2023-03-16T14:04:40Z,5ckvwhwy,serial-reaction-time,1,R,5,1,35,3124,0,2,710.0999999940395,232,T
2023-03-16T14:04:41Z,5ckvwhwy,serial-reaction-time,1,P,5,1,36,3124,0,1,352.5,321,H
2023-03-16T14:04:42Z,5ckvwhwy,serial-reaction-time,1,R,5,1,37,3124,0,3,610.3000000119209,213,L
2023-03-16T14:04:43Z,5ckvwhwy,serial-reaction-time,1,P,5,1,38,3124,0,2,736.7999999821186,132,H
2023-03-16T14:04:43Z,5ckvwhwy,serial-reaction-time,1,R,5,1,39,3124,0,2,336,322,L
2023-03-16T14:04:44Z,5ckvwhwy,serial-reaction-time,1,P,5,1,40,3124,0,4,377.39999997615814,224,H
2023-03-16T14:04:44Z,5ckvwhwy,serial-reaction-time,1,R,5,1,41,3124,0,3,527.2999999821186,243,L
2023-03-16T14:04:45Z,5ckvwhwy,serial-reaction-time,1,P,5,1,42,3124,0,3,344.09999999403954,433,H
2023-03-16T14:04:45Z,5ckvwhwy,serial-reaction-time,NA,R,5,1,43,3124,0,1,323.2999999821186,331,H
2023-03-16T14:04:45Z,5ckvwhwy,serial-reaction-time,1,R,5,0,43,3124,0,1,631.7999999821186,331,H
2023-03-16T14:04:46Z,5ckvwhwy,serial-reaction-time,1,P,5,1,44,3124,0,1,385.09999999403954,311,H
2023-03-16T14:04:47Z,5ckvwhwy,serial-reaction-time,1,R,5,1,45,3124,0,2,553.5,112,H
2023-03-16T14:04:47Z,5ckvwhwy,serial-reaction-time,1,P,5,1,46,3124,0,2,290.2000000178814,122,H
2023-03-16T14:04:48Z,5ckvwhwy,serial-reaction-time,1,R,5,1,47,3124,0,2,356.59999999403954,222,R
2023-03-16T14:04:48Z,5ckvwhwy,serial-reaction-time,1,P,5,1,48,3124,0,4,474.09999999403954,224,H
2023-03-16T14:04:49Z,5ckvwhwy,serial-reaction-time,1,R,5,1,49,3124,0,4,298.2000000178814,244,H
2023-03-16T14:04:49Z,5ckvwhwy,serial-reaction-time,1,P,5,1,50,3124,0,3,469.10000002384186,443,H
2023-03-16T14:04:50Z,5ckvwhwy,serial-reaction-time,1,R,5,1,51,3124,0,3,234,433,H
2023-03-16T14:04:50Z,5ckvwhwy,serial-reaction-time,1,P,5,1,52,3124,0,1,491.09999999403954,331,H
2023-03-16T14:04:51Z,5ckvwhwy,serial-reaction-time,NA,R,5,1,53,3124,0,3,218.69999998807907,313,T
2023-03-16T14:04:51Z,5ckvwhwy,serial-reaction-time,1,R,5,0,53,3124,0,3,574.0999999940395,313,T
2023-03-16T14:04:52Z,5ckvwhwy,serial-reaction-time,1,P,5,1,54,3124,0,2,402.7000000178814,132,H
2023-03-16T14:04:52Z,5ckvwhwy,serial-reaction-time,1,R,5,1,55,3124,0,4,346.30000001192093,324,L
2023-03-16T14:04:53Z,5ckvwhwy,serial-reaction-time,1,P,5,1,56,3124,0,4,329,244,H
2023-03-16T14:04:53Z,5ckvwhwy,serial-reaction-time,1,R,5,1,57,3124,0,4,353.90000000596046,444,R
2023-03-16T14:04:54Z,5ckvwhwy,serial-reaction-time,1,P,5,1,58,3124,0,3,561,443,H
2023-03-16T14:04:54Z,5ckvwhwy,serial-reaction-time,1,R,5,1,59,3124,0,3,282.40000000596046,433,H
2023-03-16T14:04:55Z,5ckvwhwy,serial-reaction-time,1,P,5,1,60,3124,0,1,428.5,331,H
2023-03-16T14:04:55Z,5ckvwhwy,serial-reaction-time,NA,R,5,1,61,3124,0,3,251.30000001192093,313,T
2023-03-16T14:04:55Z,5ckvwhwy,serial-reaction-time,1,R,5,0,61,3124,0,3,561.1000000238419,313,T
2023-03-16T14:04:56Z,5ckvwhwy,serial-reaction-time,1,P,5,1,62,3124,0,2,346.2000000178814,132,H
2023-03-16T14:04:56Z,5ckvwhwy,serial-reaction-time,1,R,5,1,63,3124,0,4,380.90000000596046,324,L
2023-03-16T14:04:57Z,5ckvwhwy,serial-reaction-time,1,P,5,1,64,3124,0,4,319.80000001192093,244,H
2023-03-16T14:04:57Z,5ckvwhwy,serial-reaction-time,1,R,5,1,65,3124,0,4,370.699999988079,444,R
2023-03-16T14:04:58Z,5ckvwhwy,serial-reaction-time,1,P,5,1,66,3124,0,3,504.5,443,H
2023-03-16T14:04:59Z,5ckvwhwy,serial-reaction-time,1,R,5,1,67,3124,0,2,488.59999999403954,432,L
2023-03-16T14:04:59Z,5ckvwhwy,serial-reaction-time,1,P,5,1,68,3124,0,1,329.5,321,H
2023-03-16T14:05:00Z,5ckvwhwy,serial-reaction-time,1,R,5,1,69,3124,0,3,503.40000000596046,213,L
2023-03-16T14:05:00Z,5ckvwhwy,serial-reaction-time,1,P,5,1,70,3124,0,2,336.69999998807907,132,H
2023-03-16T14:05:01Z,5ckvwhwy,serial-reaction-time,1,R,5,1,71,3124,0,2,330.69999998807907,322,L
2023-03-16T14:05:01Z,5ckvwhwy,serial-reaction-time,1,P,5,1,72,3124,0,4,331.30000001192093,224,H
2023-03-16T14:05:02Z,5ckvwhwy,serial-reaction-time,1,R,5,1,73,3124,0,4,346.19999998807907,244,H
2023-03-16T14:05:02Z,5ckvwhwy,serial-reaction-time,1,P,5,1,74,3124,0,3,377.09999999403954,443,H
2023-03-16T14:05:03Z,5ckvwhwy,serial-reaction-time,1,R,5,1,75,3124,0,4,538.1000000238419,434,T
2023-03-16T14:05:04Z,5ckvwhwy,serial-reaction-time,1,P,5,1,76,3124,0,1,452.59999999403954,341,H
2023-03-16T14:05:04Z,5ckvwhwy,serial-reaction-time,1,R,5,1,77,3124,0,2,313.90000000596046,412,L
2023-03-16T14:05:05Z,5ckvwhwy,serial-reaction-time,1,P,5,1,78,3124,0,2,341.2000000178814,122,H
2023-03-16T14:05:05Z,5ckvwhwy,serial-reaction-time,1,R,5,1,79,3124,0,2,358,222,R
2023-03-16T14:05:05Z,5ckvwhwy,serial-reaction-time,1,P,5,1,80,3124,0,4,337.7000000178814,224,H
2023-03-16T14:05:11Z,5ckvwhwy,html-keyboard-response,NA,NA,NA,NA,NA,NA,NA,NA,NA,NA,NA
2023-03-16T14:05:14Z,5ckvwhwy,html-keyboard-response,NA,NA,NA,NA,NA,NA,NA,NA,NA,NA,NA
2023-03-16T14:05:15Z,5ckvwhwy,fullscreen,NA,NA,NA,NA,NA,NA,NA,NA,NA,NA,NA
NA,NA,NA,NA,NA,NA,NA,NA,NA,NA,NA,NA,NA,NA
