datetime,id,trial_type,correct,p_or_r,block,first_response,trial_number,sequence,is_practice,correct_pos,cumulative_rt,actual_triplet,triplet_type
2022-12-02T18:30:17Z,c8cu3c3m,fullscreen,NA,NA,NA,NA,NA,NA,NA,NA,NA,NA,NA
2022-12-02T18:30:21Z,c8cu3c3m,html-keyboard-response,NA,NA,NA,NA,NA,NA,NA,NA,NA,NA,NA
2022-12-02T18:30:23Z,c8cu3c3m,serial-reaction-time,1,R,1,1,1,4123,0,1,1032,1,X
2022-12-02T18:30:24Z,c8cu3c3m,serial-reaction-time,1,P,1,1,2,4123,0,4,830,14,X
2022-12-02T18:30:24Z,c8cu3c3m,serial-reaction-time,1,R,1,1,3,4123,0,1,440,141,T
2022-12-02T18:30:25Z,c8cu3c3m,serial-reaction-time,1,P,1,1,4,4123,0,1,334,411,H
2022-12-02T18:30:25Z,c8cu3c3m,serial-reaction-time,NA,R,1,1,5,4123,0,4,337,114,L
2022-12-02T18:30:25Z,c8cu3c3m,serial-reaction-time,1,R,1,0,5,4123,0,4,386,114,L
2022-12-02T18:30:26Z,c8cu3c3m,serial-reaction-time,1,P,1,1,6,4123,0,2,491,142,H
2022-12-02T18:30:26Z,c8cu3c3m,serial-reaction-time,1,R,1,1,7,4123,0,2,269,422,L
2022-12-02T18:30:27Z,c8cu3c3m,serial-reaction-time,1,P,1,1,8,4123,0,3,316,223,H
2022-12-02T18:30:27Z,c8cu3c3m,serial-reaction-time,NA,R,1,1,9,4123,0,2,333,232,T
2022-12-02T18:30:27Z,c8cu3c3m,serial-reaction-time,1,R,1,0,9,4123,0,2,475,232,T
2022-12-02T18:30:28Z,c8cu3c3m,serial-reaction-time,1,P,1,1,10,4123,0,4,316,324,H
2022-12-02T18:30:28Z,c8cu3c3m,serial-reaction-time,1,R,1,1,11,4123,0,2,326,242,T
2022-12-02T18:30:29Z,c8cu3c3m,serial-reaction-time,NA,P,1,1,12,4123,0,1,228,421,H
2022-12-02T18:30:29Z,c8cu3c3m,serial-reaction-time,1,P,1,0,12,4123,0,1,352,421,H
2022-12-02T18:30:29Z,c8cu3c3m,serial-reaction-time,1,R,1,1,13,4123,0,1,329,211,L
2022-12-02T18:30:30Z,c8cu3c3m,serial-reaction-time,1,P,1,1,14,4123,0,2,355,112,H
2022-12-02T18:30:30Z,c8cu3c3m,serial-reaction-time,1,R,1,1,15,4123,0,3,408,123,L
2022-12-02T18:30:31Z,c8cu3c3m,serial-reaction-time,1,P,1,1,16,4123,0,3,309,233,H
2022-12-02T18:30:31Z,c8cu3c3m,serial-reaction-time,1,R,1,1,17,4123,0,2,389,332,L
2022-12-02T18:30:32Z,c8cu3c3m,serial-reaction-time,1,P,1,1,18,4123,0,4,334,324,H
2022-12-02T18:30:32Z,c8cu3c3m,serial-reaction-time,1,R,1,1,19,4123,0,1,343,241,L
2022-12-02T18:30:33Z,c8cu3c3m,serial-reaction-time,1,P,1,1,20,4123,0,1,242,411,H
2022-12-02T18:30:33Z,c8cu3c3m,serial-reaction-time,1,R,1,1,21,4123,0,2,350,112,H
2022-12-02T18:30:34Z,c8cu3c3m,serial-reaction-time,1,P,1,1,22,4123,0,2,312,122,H
2022-12-02T18:30:34Z,c8cu3c3m,serial-reaction-time,1,R,1,1,23,4123,0,1,325,221,L
2022-12-02T18:30:34Z,c8cu3c3m,serial-reaction-time,1,P,1,1,24,4123,0,3,361,213,H
2022-12-02T18:30:35Z,c8cu3c3m,serial-reaction-time,1,R,1,1,25,4123,0,2,445,132,H
2022-12-02T18:30:36Z,c8cu3c3m,serial-reaction-time,1,P,1,1,26,4123,0,4,388,324,H
2022-12-02T18:30:36Z,c8cu3c3m,serial-reaction-time,1,R,1,1,27,4123,0,4,333,244,L
2022-12-02T18:30:37Z,c8cu3c3m,serial-reaction-time,1,P,1,1,28,4123,0,1,370,441,H
2022-12-02T18:30:37Z,c8cu3c3m,serial-reaction-time,1,R,1,1,29,4123,0,4,403,414,T
2022-12-02T18:30:38Z,c8cu3c3m,serial-reaction-time,1,P,1,1,30,4123,0,2,485,142,H
2022-12-02T18:30:38Z,c8cu3c3m,serial-reaction-time,1,R,1,1,31,4123,0,2,407,422,L
2022-12-02T18:30:39Z,c8cu3c3m,serial-reaction-time,1,P,1,1,32,4123,0,3,441,223,H
2022-12-02T18:30:39Z,c8cu3c3m,serial-reaction-time,1,R,1,1,33,4123,0,4,325,234,L
2022-12-02T18:30:40Z,c8cu3c3m,serial-reaction-time,1,P,1,1,34,4123,0,4,386,344,H
2022-12-02T18:30:40Z,c8cu3c3m,serial-reaction-time,1,R,1,1,35,4123,0,2,483,442,L
2022-12-02T18:30:41Z,c8cu3c3m,serial-reaction-time,1,P,1,1,36,4123,0,1,327,421,H
2022-12-02T18:30:41Z,c8cu3c3m,serial-reaction-time,1,R,1,1,37,4123,0,2,295,212,T
2022-12-02T18:30:42Z,c8cu3c3m,serial-reaction-time,1,P,1,1,38,4123,0,2,297,122,H
2022-12-02T18:30:42Z,c8cu3c3m,serial-reaction-time,1,R,1,1,39,4123,0,4,306,224,L
2022-12-02T18:30:43Z,c8cu3c3m,serial-reaction-time,1,P,1,1,40,4123,0,3,385,243,H
2022-12-02T18:30:43Z,c8cu3c3m,serial-reaction-time,1,R,1,1,41,4123,0,2,442,432,L
2022-12-02T18:30:44Z,c8cu3c3m,serial-reaction-time,1,P,1,1,42,4123,0,4,306,324,H
2022-12-02T18:30:44Z,c8cu3c3m,serial-reaction-time,1,R,1,1,43,4123,0,2,329,242,T
2022-12-02T18:30:45Z,c8cu3c3m,serial-reaction-time,1,P,1,1,44,4123,0,1,512,421,H
2022-12-02T18:30:45Z,c8cu3c3m,serial-reaction-time,1,R,1,1,45,4123,0,3,349,213,H
2022-12-02T18:30:46Z,c8cu3c3m,serial-reaction-time,NA,P,1,1,46,4123,0,2,300,132,H
2022-12-02T18:30:46Z,c8cu3c3m,serial-reaction-time,1,P,1,0,46,4123,0,2,580,132,H
2022-12-02T18:30:47Z,c8cu3c3m,serial-reaction-time,1,R,1,1,47,4123,0,3,404,323,T
2022-12-02T18:30:47Z,c8cu3c3m,serial-reaction-time,1,P,1,1,48,4123,0,3,335,233,H
2022-12-02T18:30:48Z,c8cu3c3m,serial-reaction-time,1,R,1,1,49,4123,0,2,351,332,L
2022-12-02T18:30:48Z,c8cu3c3m,serial-reaction-time,1,P,1,1,50,4123,0,4,310,324,H
2022-12-02T18:30:48Z,c8cu3c3m,serial-reaction-time,1,R,1,1,51,4123,0,4,297,244,L
2022-12-02T18:30:49Z,c8cu3c3m,serial-reaction-time,1,P,1,1,52,4123,0,1,363,441,H
2022-12-02T18:30:50Z,c8cu3c3m,serial-reaction-time,1,R,1,1,53,4123,0,4,432,414,T
2022-12-02T18:30:50Z,c8cu3c3m,serial-reaction-time,1,P,1,1,54,4123,0,2,419,142,H
2022-12-02T18:30:51Z,c8cu3c3m,serial-reaction-time,1,R,1,1,55,4123,0,3,422,423,L
2022-12-02T18:30:51Z,c8cu3c3m,serial-reaction-time,1,P,1,1,56,4123,0,3,365,233,H
2022-12-02T18:30:52Z,c8cu3c3m,serial-reaction-time,1,R,1,1,57,4123,0,3,276,333,R
2022-12-02T18:30:52Z,c8cu3c3m,serial-reaction-time,1,P,1,1,58,4123,0,4,309,334,H
2022-12-02T18:30:53Z,c8cu3c3m,serial-reaction-time,NA,R,1,1,59,4123,0,3,402,343,T
2022-12-02T18:30:53Z,c8cu3c3m,serial-reaction-time,1,R,1,0,59,4123,0,3,791,343,T
2022-12-02T18:30:53Z,c8cu3c3m,serial-reaction-time,NA,P,1,1,60,4123,0,1,303,431,H
2022-12-02T18:30:54Z,c8cu3c3m,serial-reaction-time,1,P,1,0,60,4123,0,1,454,431,H
2022-12-02T18:30:54Z,c8cu3c3m,serial-reaction-time,NA,R,1,1,61,4123,0,2,374,312,L
2022-12-02T18:30:54Z,c8cu3c3m,serial-reaction-time,1,R,1,0,61,4123,0,2,472,312,L
2022-12-02T18:30:55Z,c8cu3c3m,serial-reaction-time,1,P,1,1,62,4123,0,2,342,122,H
2022-12-02T18:30:55Z,c8cu3c3m,serial-reaction-time,1,R,1,1,63,4123,0,3,522,223,H
2022-12-02T18:30:56Z,c8cu3c3m,serial-reaction-time,1,P,1,1,64,4123,0,3,306,233,H
2022-12-02T18:30:56Z,c8cu3c3m,serial-reaction-time,1,R,1,1,65,4123,0,3,280,333,R
2022-12-02T18:30:57Z,c8cu3c3m,serial-reaction-time,1,P,1,1,66,4123,0,4,360,334,H
2022-12-02T18:30:57Z,c8cu3c3m,serial-reaction-time,1,R,1,1,67,4123,0,2,370,342,L
2022-12-02T18:30:58Z,c8cu3c3m,serial-reaction-time,1,P,1,1,68,4123,0,1,291,421,H
2022-12-02T18:30:58Z,c8cu3c3m,serial-reaction-time,1,R,1,1,69,4123,0,2,350,212,T
2022-12-02T18:30:58Z,c8cu3c3m,serial-reaction-time,1,P,1,1,70,4123,0,2,292,122,H
2022-12-02T18:30:59Z,c8cu3c3m,serial-reaction-time,1,R,1,1,71,4123,0,3,501,223,H
2022-12-02T18:31:00Z,c8cu3c3m,serial-reaction-time,1,P,1,1,72,4123,0,3,355,233,H
2022-12-02T18:31:00Z,c8cu3c3m,serial-reaction-time,1,R,1,1,73,4123,0,3,324,333,R
2022-12-02T18:31:01Z,c8cu3c3m,serial-reaction-time,1,P,1,1,74,4123,0,4,394,334,H
2022-12-02T18:31:01Z,c8cu3c3m,serial-reaction-time,1,R,1,1,75,4123,0,1,362,341,L
2022-12-02T18:31:02Z,c8cu3c3m,serial-reaction-time,1,P,1,1,76,4123,0,1,333,411,H
2022-12-02T18:31:02Z,c8cu3c3m,serial-reaction-time,1,R,1,1,77,4123,0,1,329,111,R
2022-12-02T18:31:03Z,c8cu3c3m,serial-reaction-time,1,P,1,1,78,4123,0,2,447,112,H
2022-12-02T18:31:03Z,c8cu3c3m,serial-reaction-time,1,R,1,1,79,4123,0,1,395,121,T
2022-12-02T18:31:04Z,c8cu3c3m,serial-reaction-time,1,P,1,1,80,4123,0,3,354,213,H
2022-12-02T18:31:09Z,c8cu3c3m,html-keyboard-response,NA,NA,NA,NA,NA,NA,NA,NA,NA,NA,NA
2022-12-02T18:31:10Z,c8cu3c3m,html-keyboard-response,NA,NA,NA,NA,NA,NA,NA,NA,NA,NA,NA
2022-12-02T18:31:11Z,c8cu3c3m,serial-reaction-time,1,R,2,1,1,4123,0,3,462,3,X
2022-12-02T18:31:12Z,c8cu3c3m,serial-reaction-time,1,P,2,1,2,4123,0,4,306,34,X
2022-12-02T18:31:12Z,c8cu3c3m,serial-reaction-time,1,R,2,1,3,4123,0,4,343,344,H
2022-12-02T18:31:13Z,c8cu3c3m,serial-reaction-time,1,P,2,1,4,4123,0,1,467,441,H
2022-12-02T18:31:13Z,c8cu3c3m,serial-reaction-time,1,R,2,1,5,4123,0,2,402,412,L
2022-12-02T18:31:14Z,c8cu3c3m,serial-reaction-time,1,P,2,1,6,4123,0,2,278,122,H
2022-12-02T18:31:14Z,c8cu3c3m,serial-reaction-time,1,R,2,1,7,4123,0,1,287,221,L
2022-12-02T18:31:15Z,c8cu3c3m,serial-reaction-time,1,P,2,1,8,4123,0,3,297,213,H
2022-12-02T18:31:15Z,c8cu3c3m,serial-reaction-time,1,R,2,1,9,4123,0,3,264,133,L
2022-12-02T18:31:15Z,c8cu3c3m,serial-reaction-time,1,P,2,1,10,4123,0,4,272,334,H
2022-12-02T18:31:16Z,c8cu3c3m,serial-reaction-time,1,R,2,1,11,4123,0,1,293,341,L
2022-12-02T18:31:16Z,c8cu3c3m,serial-reaction-time,1,P,2,1,12,4123,0,1,347,411,H
2022-12-02T18:31:17Z,c8cu3c3m,serial-reaction-time,NA,R,2,1,13,4123,0,4,277,114,L
2022-12-02T18:31:17Z,c8cu3c3m,serial-reaction-time,1,R,2,0,13,4123,0,4,527,114,L
2022-12-02T18:31:17Z,c8cu3c3m,serial-reaction-time,1,P,2,1,14,4123,0,2,425,142,H
2022-12-02T18:31:18Z,c8cu3c3m,serial-reaction-time,1,R,2,1,15,4123,0,1,347,421,H
2022-12-02T18:31:19Z,c8cu3c3m,serial-reaction-time,1,P,2,1,16,4123,0,3,441,213,H
2022-12-02T18:31:19Z,c8cu3c3m,serial-reaction-time,1,R,2,1,17,4123,0,2,318,132,H
2022-12-02T18:31:19Z,c8cu3c3m,serial-reaction-time,1,P,2,1,18,4123,0,4,311,324,H
2022-12-02T18:31:20Z,c8cu3c3m,serial-reaction-time,1,R,2,1,19,4123,0,3,372,243,H
2022-12-02T18:31:20Z,c8cu3c3m,serial-reaction-time,1,P,2,1,20,4123,0,1,357,431,H
2022-12-02T18:31:21Z,c8cu3c3m,serial-reaction-time,1,R,2,1,21,4123,0,3,281,313,T
2022-12-02T18:31:21Z,c8cu3c3m,serial-reaction-time,1,P,2,1,22,4123,0,2,353,132,H
2022-12-02T18:31:22Z,c8cu3c3m,serial-reaction-time,1,R,2,1,23,4123,0,2,380,322,L
2022-12-02T18:31:22Z,c8cu3c3m,serial-reaction-time,NA,P,2,1,24,4123,0,3,334,223,H
2022-12-02T18:31:23Z,c8cu3c3m,serial-reaction-time,1,P,2,0,24,4123,0,3,600,223,H
2022-12-02T18:31:23Z,c8cu3c3m,serial-reaction-time,1,R,2,1,25,4123,0,3,319,233,H
2022-12-02T18:31:23Z,c8cu3c3m,serial-reaction-time,1,P,2,1,26,4123,0,4,268,334,H
2022-12-02T18:31:24Z,c8cu3c3m,serial-reaction-time,NA,R,2,1,27,4123,0,3,326,343,T
2022-12-02T18:31:24Z,c8cu3c3m,serial-reaction-time,1,R,2,0,27,4123,0,3,684,343,T
2022-12-02T18:31:25Z,c8cu3c3m,serial-reaction-time,1,P,2,1,28,4123,0,1,354,431,H
2022-12-02T18:31:25Z,c8cu3c3m,serial-reaction-time,1,R,2,1,29,4123,0,3,246,313,T
2022-12-02T18:31:26Z,c8cu3c3m,serial-reaction-time,1,P,2,1,30,4123,0,2,318,132,H
2022-12-02T18:31:26Z,c8cu3c3m,serial-reaction-time,NA,R,2,1,31,4123,0,4,244,324,H
2022-12-02T18:31:26Z,c8cu3c3m,serial-reaction-time,1,R,2,0,31,4123,0,4,617,324,H
2022-12-02T18:31:27Z,c8cu3c3m,serial-reaction-time,1,P,2,1,32,4123,0,3,387,243,H
2022-12-02T18:31:27Z,c8cu3c3m,serial-reaction-time,NA,R,2,1,33,4123,0,4,376,434,T
2022-12-02T18:31:28Z,c8cu3c3m,serial-reaction-time,1,R,2,0,33,4123,0,4,738,434,T
2022-12-02T18:31:28Z,c8cu3c3m,serial-reaction-time,1,P,2,1,34,4123,0,4,342,344,H
2022-12-02T18:31:29Z,c8cu3c3m,serial-reaction-time,1,R,2,1,35,4123,0,3,384,443,L
2022-12-02T18:31:29Z,c8cu3c3m,serial-reaction-time,1,P,2,1,36,4123,0,1,313,431,H
2022-12-02T18:31:30Z,c8cu3c3m,serial-reaction-time,1,R,2,1,37,4123,0,3,287,313,T
2022-12-02T18:31:30Z,c8cu3c3m,serial-reaction-time,1,P,2,1,38,4123,0,2,357,132,H
2022-12-02T18:31:31Z,c8cu3c3m,serial-reaction-time,1,R,2,1,39,4123,0,4,446,324,H
2022-12-02T18:31:31Z,c8cu3c3m,serial-reaction-time,1,P,2,1,40,4123,0,3,380,243,H
2022-12-02T18:31:32Z,c8cu3c3m,serial-reaction-time,1,R,2,1,41,4123,0,1,340,431,H
2022-12-02T18:31:32Z,c8cu3c3m,serial-reaction-time,1,P,2,1,42,4123,0,4,311,314,H
2022-12-02T18:31:33Z,c8cu3c3m,serial-reaction-time,1,R,2,1,43,4123,0,1,444,141,T
2022-12-02T18:31:33Z,c8cu3c3m,serial-reaction-time,1,P,2,1,44,4123,0,1,374,411,H
2022-12-02T18:31:34Z,c8cu3c3m,serial-reaction-time,NA,R,2,1,45,4123,0,4,357,114,L
2022-12-02T18:31:34Z,c8cu3c3m,serial-reaction-time,1,R,2,0,45,4123,0,4,686,114,L
2022-12-02T18:31:35Z,c8cu3c3m,serial-reaction-time,1,P,2,1,46,4123,0,2,343,142,H
2022-12-02T18:31:35Z,c8cu3c3m,serial-reaction-time,1,R,2,1,47,4123,0,4,323,424,T
2022-12-02T18:31:36Z,c8cu3c3m,serial-reaction-time,NA,P,2,1,48,4123,0,3,364,243,H
2022-12-02T18:31:36Z,c8cu3c3m,serial-reaction-time,1,P,2,0,48,4123,0,3,510,243,H
2022-12-02T18:31:36Z,c8cu3c3m,serial-reaction-time,1,R,2,1,49,4123,0,2,413,432,L
2022-12-02T18:31:37Z,c8cu3c3m,serial-reaction-time,1,P,2,1,50,4123,0,4,340,324,H
2022-12-02T18:31:37Z,c8cu3c3m,serial-reaction-time,1,R,2,1,51,4123,0,3,370,243,H
2022-12-02T18:31:38Z,c8cu3c3m,serial-reaction-time,1,P,2,1,52,4123,0,1,328,431,H
2022-12-02T18:31:38Z,c8cu3c3m,serial-reaction-time,1,R,2,1,53,4123,0,4,313,314,H
2022-12-02T18:31:39Z,c8cu3c3m,serial-reaction-time,1,P,2,1,54,4123,0,2,337,142,H
2022-12-02T18:31:39Z,c8cu3c3m,serial-reaction-time,1,R,2,1,55,4123,0,4,327,424,T
2022-12-02T18:31:40Z,c8cu3c3m,serial-reaction-time,1,P,2,1,56,4123,0,3,400,243,H
2022-12-02T18:31:40Z,c8cu3c3m,serial-reaction-time,1,R,2,1,57,4123,0,3,332,433,L
2022-12-02T18:31:41Z,c8cu3c3m,serial-reaction-time,1,P,2,1,58,4123,0,4,532,334,H
2022-12-02T18:31:41Z,c8cu3c3m,serial-reaction-time,1,R,2,1,59,4123,0,3,456,343,T
2022-12-02T18:31:42Z,c8cu3c3m,serial-reaction-time,1,P,2,1,60,4123,0,1,260,431,H
2022-12-02T18:31:42Z,c8cu3c3m,serial-reaction-time,1,R,2,1,61,4123,0,2,388,312,L
2022-12-02T18:31:43Z,c8cu3c3m,serial-reaction-time,1,P,2,1,62,4123,0,2,355,122,H
2022-12-02T18:31:43Z,c8cu3c3m,serial-reaction-time,NA,R,2,1,63,4123,0,3,246,223,H
2022-12-02T18:31:44Z,c8cu3c3m,serial-reaction-time,1,R,2,0,63,4123,0,3,545,223,H
2022-12-02T18:31:44Z,c8cu3c3m,serial-reaction-time,1,P,2,1,64,4123,0,3,287,233,H
2022-12-02T18:31:44Z,c8cu3c3m,serial-reaction-time,NA,R,2,1,65,4123,0,2,292,332,L
2022-12-02T18:31:45Z,c8cu3c3m,serial-reaction-time,1,R,2,0,65,4123,0,2,554,332,L
2022-12-02T18:31:45Z,c8cu3c3m,serial-reaction-time,NA,P,2,1,66,4123,0,4,198,324,H
2022-12-02T18:31:45Z,c8cu3c3m,serial-reaction-time,1,P,2,0,66,4123,0,4,576,324,H
2022-12-02T18:31:46Z,c8cu3c3m,serial-reaction-time,NA,R,2,1,67,4123,0,1,343,241,L
2022-12-02T18:31:46Z,c8cu3c3m,serial-reaction-time,1,R,2,0,67,4123,0,1,609,241,L
2022-12-02T18:31:47Z,c8cu3c3m,serial-reaction-time,1,P,2,1,68,4123,0,1,350,411,H
2022-12-02T18:31:47Z,c8cu3c3m,serial-reaction-time,1,R,2,1,69,4123,0,2,413,112,H
2022-12-02T18:31:48Z,c8cu3c3m,serial-reaction-time,1,P,2,1,70,4123,0,2,317,122,H
2022-12-02T18:31:48Z,c8cu3c3m,serial-reaction-time,1,R,2,1,71,4123,0,3,373,223,H
2022-12-02T18:31:49Z,c8cu3c3m,serial-reaction-time,1,P,2,1,72,4123,0,3,330,233,H
2022-12-02T18:31:49Z,c8cu3c3m,serial-reaction-time,1,R,2,1,73,4123,0,2,492,332,L
2022-12-02T18:31:50Z,c8cu3c3m,serial-reaction-time,1,P,2,1,74,4123,0,4,348,324,H
2022-12-02T18:31:50Z,c8cu3c3m,serial-reaction-time,NA,R,2,1,75,4123,0,2,337,242,T
2022-12-02T18:31:51Z,c8cu3c3m,serial-reaction-time,1,R,2,0,75,4123,0,2,624,242,T
2022-12-02T18:31:51Z,c8cu3c3m,serial-reaction-time,1,P,2,1,76,4123,0,1,319,421,H
2022-12-02T18:31:51Z,c8cu3c3m,serial-reaction-time,1,R,2,1,77,4123,0,1,340,211,L
2022-12-02T18:31:52Z,c8cu3c3m,serial-reaction-time,NA,P,2,1,78,4123,0,2,219,112,H
2022-12-02T18:31:52Z,c8cu3c3m,serial-reaction-time,1,P,2,0,78,4123,0,2,506,112,H
2022-12-02T18:31:53Z,c8cu3c3m,serial-reaction-time,1,R,2,1,79,4123,0,1,363,121,T
2022-12-02T18:31:53Z,c8cu3c3m,serial-reaction-time,NA,P,2,1,80,4123,0,3,275,213,H
2022-12-02T18:31:53Z,c8cu3c3m,serial-reaction-time,1,P,2,0,80,4123,0,3,582,213,H
2022-12-02T18:31:58Z,c8cu3c3m,html-keyboard-response,NA,NA,NA,NA,NA,NA,NA,NA,NA,NA,NA
2022-12-02T18:32:49Z,c8cu3c3m,html-keyboard-response,NA,NA,NA,NA,NA,NA,NA,NA,NA,NA,NA
2022-12-02T18:32:51Z,c8cu3c3m,serial-reaction-time,NA,R,3,1,1,4123,0,1,492,1,X
2022-12-02T18:32:51Z,c8cu3c3m,serial-reaction-time,1,R,3,0,1,4123,0,1,818,1,X
2022-12-02T18:32:51Z,c8cu3c3m,serial-reaction-time,1,P,3,1,2,4123,0,4,298,14,X
2022-12-02T18:32:52Z,c8cu3c3m,serial-reaction-time,1,R,3,1,3,4123,0,4,233,144,L
2022-12-02T18:32:52Z,c8cu3c3m,serial-reaction-time,1,P,3,1,4,4123,0,1,293,441,H
2022-12-02T18:32:53Z,c8cu3c3m,serial-reaction-time,1,R,3,1,5,4123,0,3,357,413,L
2022-12-02T18:32:53Z,c8cu3c3m,serial-reaction-time,1,P,3,1,6,4123,0,2,340,132,H
2022-12-02T18:32:54Z,c8cu3c3m,serial-reaction-time,1,R,3,1,7,4123,0,1,293,321,L
2022-12-02T18:32:54Z,c8cu3c3m,serial-reaction-time,1,P,3,1,8,4123,0,3,334,213,H
2022-12-02T18:32:55Z,c8cu3c3m,serial-reaction-time,1,R,3,1,9,4123,0,2,271,132,H
2022-12-02T18:32:55Z,c8cu3c3m,serial-reaction-time,1,P,3,1,10,4123,0,4,251,324,H
2022-12-02T18:32:55Z,c8cu3c3m,serial-reaction-time,1,R,3,1,11,4123,0,1,327,241,L
2022-12-02T18:32:56Z,c8cu3c3m,serial-reaction-time,1,P,3,1,12,4123,0,1,337,411,H
2022-12-02T18:32:56Z,c8cu3c3m,serial-reaction-time,1,R,3,1,13,4123,0,1,242,111,R
2022-12-02T18:32:57Z,c8cu3c3m,serial-reaction-time,1,P,3,1,14,4123,0,2,352,112,H
2022-12-02T18:32:57Z,c8cu3c3m,serial-reaction-time,1,R,3,1,15,4123,0,1,342,121,T
2022-12-02T18:32:58Z,c8cu3c3m,serial-reaction-time,1,P,3,1,16,4123,0,3,350,213,H
2022-12-02T18:32:58Z,c8cu3c3m,serial-reaction-time,1,R,3,1,17,4123,0,4,288,134,L
2022-12-02T18:32:59Z,c8cu3c3m,serial-reaction-time,1,P,3,1,18,4123,0,4,357,344,H
2022-12-02T18:32:59Z,c8cu3c3m,serial-reaction-time,1,R,3,1,19,4123,0,4,266,444,R
2022-12-02T18:32:59Z,c8cu3c3m,serial-reaction-time,1,P,3,1,20,4123,0,1,324,441,H
2022-12-02T18:33:00Z,c8cu3c3m,serial-reaction-time,NA,R,3,1,21,4123,0,4,189,414,T
2022-12-02T18:33:00Z,c8cu3c3m,serial-reaction-time,1,R,3,0,21,4123,0,4,421,414,T
2022-12-02T18:33:00Z,c8cu3c3m,serial-reaction-time,1,P,3,1,22,4123,0,2,324,142,H
2022-12-02T18:33:01Z,c8cu3c3m,serial-reaction-time,1,R,3,1,23,4123,0,3,302,423,L
2022-12-02T18:33:01Z,c8cu3c3m,serial-reaction-time,1,P,3,1,24,4123,0,3,293,233,H
2022-12-02T18:33:02Z,c8cu3c3m,serial-reaction-time,1,R,3,1,25,4123,0,2,306,332,L
2022-12-02T18:33:02Z,c8cu3c3m,serial-reaction-time,1,P,3,1,26,4123,0,4,249,324,H
2022-12-02T18:33:03Z,c8cu3c3m,serial-reaction-time,NA,R,3,1,27,4123,0,3,334,243,H
2022-12-02T18:33:03Z,c8cu3c3m,serial-reaction-time,1,R,3,0,27,4123,0,3,406,243,H
2022-12-02T18:33:03Z,c8cu3c3m,serial-reaction-time,1,P,3,1,28,4123,0,1,416,431,H
2022-12-02T18:33:04Z,c8cu3c3m,serial-reaction-time,NA,R,3,1,29,4123,0,2,240,312,L
2022-12-02T18:33:04Z,c8cu3c3m,serial-reaction-time,1,R,3,0,29,4123,0,2,328,312,L
2022-12-02T18:33:04Z,c8cu3c3m,serial-reaction-time,1,P,3,1,30,4123,0,2,325,122,H
2022-12-02T18:33:05Z,c8cu3c3m,serial-reaction-time,NA,R,3,1,31,4123,0,1,214,221,L
2022-12-02T18:33:05Z,c8cu3c3m,serial-reaction-time,1,R,3,0,31,4123,0,1,436,221,L
2022-12-02T18:33:05Z,c8cu3c3m,serial-reaction-time,1,P,3,1,32,4123,0,3,422,213,H
2022-12-02T18:33:06Z,c8cu3c3m,serial-reaction-time,1,R,3,1,33,4123,0,1,328,131,T
2022-12-02T18:33:06Z,c8cu3c3m,serial-reaction-time,1,P,3,1,34,4123,0,4,330,314,H
2022-12-02T18:33:07Z,c8cu3c3m,serial-reaction-time,1,R,3,1,35,4123,0,4,332,144,L
2022-12-02T18:33:07Z,c8cu3c3m,serial-reaction-time,1,P,3,1,36,4123,0,1,322,441,H
2022-12-02T18:33:08Z,c8cu3c3m,serial-reaction-time,1,R,3,1,37,4123,0,3,307,413,L
2022-12-02T18:33:08Z,c8cu3c3m,serial-reaction-time,1,P,3,1,38,4123,0,2,250,132,H
2022-12-02T18:33:08Z,c8cu3c3m,serial-reaction-time,NA,R,3,1,39,4123,0,2,224,322,L
2022-12-02T18:33:09Z,c8cu3c3m,serial-reaction-time,1,R,3,0,39,4123,0,2,348,322,L
2022-12-02T18:33:09Z,c8cu3c3m,serial-reaction-time,NA,P,3,1,40,4123,0,3,345,223,H
2022-12-02T18:33:09Z,c8cu3c3m,serial-reaction-time,1,P,3,0,40,4123,0,3,461,223,H
2022-12-02T18:33:10Z,c8cu3c3m,serial-reaction-time,1,R,3,1,41,4123,0,1,360,231,L
2022-12-02T18:33:10Z,c8cu3c3m,serial-reaction-time,1,P,3,1,42,4123,0,4,267,314,H
2022-12-02T18:33:11Z,c8cu3c3m,serial-reaction-time,1,R,3,1,43,4123,0,1,436,141,T
2022-12-02T18:33:11Z,c8cu3c3m,serial-reaction-time,1,P,3,1,44,4123,0,1,339,411,H
2022-12-02T18:33:12Z,c8cu3c3m,serial-reaction-time,NA,R,3,1,45,4123,0,2,360,112,H
2022-12-02T18:33:12Z,c8cu3c3m,serial-reaction-time,1,R,3,0,45,4123,0,2,417,112,H
2022-12-02T18:33:12Z,c8cu3c3m,serial-reaction-time,1,P,3,1,46,4123,0,2,351,122,H
2022-12-02T18:33:13Z,c8cu3c3m,serial-reaction-time,1,R,3,1,47,4123,0,3,366,223,H
2022-12-02T18:33:13Z,c8cu3c3m,serial-reaction-time,1,P,3,1,48,4123,0,3,307,233,H
2022-12-02T18:33:14Z,c8cu3c3m,serial-reaction-time,1,R,3,1,49,4123,0,4,301,334,H
2022-12-02T18:33:14Z,c8cu3c3m,serial-reaction-time,1,P,3,1,50,4123,0,4,286,344,H
2022-12-02T18:33:14Z,c8cu3c3m,serial-reaction-time,1,R,3,1,51,4123,0,1,314,441,H
2022-12-02T18:33:15Z,c8cu3c3m,serial-reaction-time,1,P,3,1,52,4123,0,1,368,411,H
2022-12-02T18:33:15Z,c8cu3c3m,serial-reaction-time,1,R,3,1,53,4123,0,4,337,114,L
2022-12-02T18:33:16Z,c8cu3c3m,serial-reaction-time,1,P,3,1,54,4123,0,2,450,142,H
2022-12-02T18:33:17Z,c8cu3c3m,serial-reaction-time,1,R,3,1,55,4123,0,1,345,421,H
2022-12-02T18:33:17Z,c8cu3c3m,serial-reaction-time,1,P,3,1,56,4123,0,3,414,213,H
2022-12-02T18:33:18Z,c8cu3c3m,serial-reaction-time,1,R,3,1,57,4123,0,3,342,133,L
2022-12-02T18:33:18Z,c8cu3c3m,serial-reaction-time,1,P,3,1,58,4123,0,4,493,334,H
2022-12-02T18:33:19Z,c8cu3c3m,serial-reaction-time,1,R,3,1,59,4123,0,4,330,344,H
2022-12-02T18:33:19Z,c8cu3c3m,serial-reaction-time,1,P,3,1,60,4123,0,1,414,441,H
2022-12-02T18:33:20Z,c8cu3c3m,serial-reaction-time,1,R,3,1,61,4123,0,4,367,414,T
2022-12-02T18:33:20Z,c8cu3c3m,serial-reaction-time,NA,P,3,1,62,4123,0,2,480,142,H
2022-12-02T18:33:21Z,c8cu3c3m,serial-reaction-time,1,P,3,0,62,4123,0,2,936,142,H
2022-12-02T18:33:21Z,c8cu3c3m,serial-reaction-time,1,R,3,1,63,4123,0,1,335,421,H
2022-12-02T18:33:22Z,c8cu3c3m,serial-reaction-time,1,P,3,1,64,4123,0,3,419,213,H
2022-12-02T18:33:22Z,c8cu3c3m,serial-reaction-time,1,R,3,1,65,4123,0,4,309,134,L
2022-12-02T18:33:23Z,c8cu3c3m,serial-reaction-time,1,P,3,1,66,4123,0,4,306,344,H
2022-12-02T18:33:23Z,c8cu3c3m,serial-reaction-time,1,R,3,1,67,4123,0,1,315,441,H
2022-12-02T18:33:24Z,c8cu3c3m,serial-reaction-time,1,P,3,1,68,4123,0,1,325,411,H
2022-12-02T18:33:24Z,c8cu3c3m,serial-reaction-time,1,R,3,1,69,4123,0,3,326,113,L
2022-12-02T18:33:25Z,c8cu3c3m,serial-reaction-time,1,P,3,1,70,4123,0,2,295,132,H
2022-12-02T18:33:25Z,c8cu3c3m,serial-reaction-time,1,R,3,1,71,4123,0,1,297,321,L
2022-12-02T18:33:25Z,c8cu3c3m,serial-reaction-time,NA,P,3,1,72,4123,0,3,268,213,H
2022-12-02T18:33:26Z,c8cu3c3m,serial-reaction-time,1,P,3,0,72,4123,0,3,567,213,H
2022-12-02T18:33:26Z,c8cu3c3m,serial-reaction-time,1,R,3,1,73,4123,0,4,276,134,L
2022-12-02T18:33:26Z,c8cu3c3m,serial-reaction-time,NA,P,3,1,74,4123,0,4,229,344,H
2022-12-02T18:33:27Z,c8cu3c3m,serial-reaction-time,1,P,3,0,74,4123,0,4,559,344,H
2022-12-02T18:33:27Z,c8cu3c3m,serial-reaction-time,1,R,3,1,75,4123,0,1,312,441,H
2022-12-02T18:33:28Z,c8cu3c3m,serial-reaction-time,1,P,3,1,76,4123,0,1,233,411,H
2022-12-02T18:33:28Z,c8cu3c3m,serial-reaction-time,1,R,3,1,77,4123,0,2,407,112,H
2022-12-02T18:33:29Z,c8cu3c3m,serial-reaction-time,1,P,3,1,78,4123,0,2,278,122,H
2022-12-02T18:33:29Z,c8cu3c3m,serial-reaction-time,1,R,3,1,79,4123,0,2,321,222,R
2022-12-02T18:33:30Z,c8cu3c3m,serial-reaction-time,1,P,3,1,80,4123,0,3,373,223,H
2022-12-02T18:33:35Z,c8cu3c3m,html-keyboard-response,NA,NA,NA,NA,NA,NA,NA,NA,NA,NA,NA
2022-12-02T18:33:35Z,c8cu3c3m,html-keyboard-response,NA,NA,NA,NA,NA,NA,NA,NA,NA,NA,NA
2022-12-02T18:33:37Z,c8cu3c3m,serial-reaction-time,1,R,4,1,1,4123,0,1,464,1,X
2022-12-02T18:33:37Z,c8cu3c3m,serial-reaction-time,1,P,4,1,2,4123,0,4,386,14,X
2022-12-02T18:33:38Z,c8cu3c3m,serial-reaction-time,1,R,4,1,3,4123,0,1,338,141,T
2022-12-02T18:33:38Z,c8cu3c3m,serial-reaction-time,1,P,4,1,4,4123,0,1,299,411,H
2022-12-02T18:33:38Z,c8cu3c3m,serial-reaction-time,1,R,4,1,5,4123,0,1,278,111,R
2022-12-02T18:33:39Z,c8cu3c3m,serial-reaction-time,1,P,4,1,6,4123,0,2,401,112,H
2022-12-02T18:33:39Z,c8cu3c3m,serial-reaction-time,1,R,4,1,7,4123,0,1,382,121,T
2022-12-02T18:33:40Z,c8cu3c3m,serial-reaction-time,1,P,4,1,8,4123,0,3,374,213,H
2022-12-02T18:33:40Z,c8cu3c3m,serial-reaction-time,1,R,4,1,9,4123,0,1,328,131,T
2022-12-02T18:33:41Z,c8cu3c3m,serial-reaction-time,1,P,4,1,10,4123,0,4,319,314,H
2022-12-02T18:33:41Z,c8cu3c3m,serial-reaction-time,NA,R,4,1,11,4123,0,3,260,143,L
2022-12-02T18:33:42Z,c8cu3c3m,serial-reaction-time,1,R,4,0,11,4123,0,3,530,143,L
2022-12-02T18:33:42Z,c8cu3c3m,serial-reaction-time,1,P,4,1,12,4123,0,1,190,431,H
2022-12-02T18:33:42Z,c8cu3c3m,serial-reaction-time,1,R,4,1,13,4123,0,2,409,312,L
2022-12-02T18:33:43Z,c8cu3c3m,serial-reaction-time,1,P,4,1,14,4123,0,2,248,122,H
2022-12-02T18:33:43Z,c8cu3c3m,serial-reaction-time,1,R,4,1,15,4123,0,4,338,224,L
2022-12-02T18:33:44Z,c8cu3c3m,serial-reaction-time,1,P,4,1,16,4123,0,3,429,243,H
2022-12-02T18:33:44Z,c8cu3c3m,serial-reaction-time,1,R,4,1,17,4123,0,4,389,434,T
2022-12-02T18:33:45Z,c8cu3c3m,serial-reaction-time,1,P,4,1,18,4123,0,4,335,344,H
2022-12-02T18:33:45Z,c8cu3c3m,serial-reaction-time,1,R,4,1,19,4123,0,4,315,444,R
2022-12-02T18:33:46Z,c8cu3c3m,serial-reaction-time,1,P,4,1,20,4123,0,1,387,441,H
2022-12-02T18:33:46Z,c8cu3c3m,serial-reaction-time,1,R,4,1,21,4123,0,3,342,413,L
2022-12-02T18:33:47Z,c8cu3c3m,serial-reaction-time,NA,P,4,1,22,4123,0,2,296,132,H
2022-12-02T18:33:47Z,c8cu3c3m,serial-reaction-time,1,P,4,0,22,4123,0,2,612,132,H
2022-12-02T18:33:48Z,c8cu3c3m,serial-reaction-time,1,R,4,1,23,4123,0,4,330,324,H
2022-12-02T18:33:48Z,c8cu3c3m,serial-reaction-time,NA,P,4,1,24,4123,0,3,285,243,H
2022-12-02T18:33:48Z,c8cu3c3m,serial-reaction-time,1,P,4,0,24,4123,0,3,581,243,H
2022-12-02T18:33:49Z,c8cu3c3m,serial-reaction-time,1,R,4,1,25,4123,0,1,344,431,H
2022-12-02T18:33:49Z,c8cu3c3m,serial-reaction-time,1,P,4,1,26,4123,0,4,318,314,H
2022-12-02T18:33:50Z,c8cu3c3m,serial-reaction-time,1,R,4,1,27,4123,0,2,346,142,H
2022-12-02T18:33:50Z,c8cu3c3m,serial-reaction-time,1,P,4,1,28,4123,0,1,338,421,H
2022-12-02T18:33:51Z,c8cu3c3m,serial-reaction-time,1,R,4,1,29,4123,0,3,342,213,H
2022-12-02T18:33:51Z,c8cu3c3m,serial-reaction-time,1,P,4,1,30,4123,0,2,550,132,H
2022-12-02T18:33:52Z,c8cu3c3m,serial-reaction-time,1,R,4,1,31,4123,0,3,408,323,T
2022-12-02T18:33:52Z,c8cu3c3m,serial-reaction-time,1,P,4,1,32,4123,0,3,321,233,H
2022-12-02T18:33:53Z,c8cu3c3m,serial-reaction-time,1,R,4,1,33,4123,0,2,339,332,L
2022-12-02T18:33:53Z,c8cu3c3m,serial-reaction-time,NA,P,4,1,34,4123,0,4,358,324,H
2022-12-02T18:33:54Z,c8cu3c3m,serial-reaction-time,1,P,4,0,34,4123,0,4,661,324,H
2022-12-02T18:33:54Z,c8cu3c3m,serial-reaction-time,1,R,4,1,35,4123,0,4,287,244,L
2022-12-02T18:33:55Z,c8cu3c3m,serial-reaction-time,1,P,4,1,36,4123,0,1,360,441,H
2022-12-02T18:33:55Z,c8cu3c3m,serial-reaction-time,1,R,4,1,37,4123,0,2,387,412,L
2022-12-02T18:33:56Z,c8cu3c3m,serial-reaction-time,1,P,4,1,38,4123,0,2,292,122,H
2022-12-02T18:33:56Z,c8cu3c3m,serial-reaction-time,1,R,4,1,39,4123,0,4,354,224,L
2022-12-02T18:33:57Z,c8cu3c3m,serial-reaction-time,1,P,4,1,40,4123,0,3,384,243,H
2022-12-02T18:33:57Z,c8cu3c3m,serial-reaction-time,1,R,4,1,41,4123,0,2,457,432,L
2022-12-02T18:33:58Z,c8cu3c3m,serial-reaction-time,1,P,4,1,42,4123,0,4,428,324,H
2022-12-02T18:33:58Z,c8cu3c3m,serial-reaction-time,1,R,4,1,43,4123,0,1,397,241,L
2022-12-02T18:33:59Z,c8cu3c3m,serial-reaction-time,1,P,4,1,44,4123,0,1,331,411,H
2022-12-02T18:33:59Z,c8cu3c3m,serial-reaction-time,1,R,4,1,45,4123,0,3,314,113,L
2022-12-02T18:34:00Z,c8cu3c3m,serial-reaction-time,1,P,4,1,46,4123,0,2,273,132,H
2022-12-02T18:34:00Z,c8cu3c3m,serial-reaction-time,1,R,4,1,47,4123,0,2,337,322,L
2022-12-02T18:34:01Z,c8cu3c3m,serial-reaction-time,1,P,4,1,48,4123,0,3,631,223,H
2022-12-02T18:34:01Z,c8cu3c3m,serial-reaction-time,1,R,4,1,49,4123,0,1,378,231,L
2022-12-02T18:34:02Z,c8cu3c3m,serial-reaction-time,1,P,4,1,50,4123,0,4,318,314,H
2022-12-02T18:34:02Z,c8cu3c3m,serial-reaction-time,1,R,4,1,51,4123,0,2,409,142,H
2022-12-02T18:34:03Z,c8cu3c3m,serial-reaction-time,1,P,4,1,52,4123,0,1,400,421,H
2022-12-02T18:34:03Z,c8cu3c3m,serial-reaction-time,1,R,4,1,53,4123,0,3,351,213,H
2022-12-02T18:34:04Z,c8cu3c3m,serial-reaction-time,1,P,4,1,54,4123,0,2,309,132,H
2022-12-02T18:34:04Z,c8cu3c3m,serial-reaction-time,1,R,4,1,55,4123,0,1,300,321,L
2022-12-02T18:34:05Z,c8cu3c3m,serial-reaction-time,1,P,4,1,56,4123,0,3,371,213,H
2022-12-02T18:34:05Z,c8cu3c3m,serial-reaction-time,NA,R,4,1,57,4123,0,1,271,131,T
2022-12-02T18:34:06Z,c8cu3c3m,serial-reaction-time,1,R,4,0,57,4123,0,1,632,131,T
2022-12-02T18:34:06Z,c8cu3c3m,serial-reaction-time,1,P,4,1,58,4123,0,4,364,314,H
2022-12-02T18:34:07Z,c8cu3c3m,serial-reaction-time,1,R,4,1,59,4123,0,3,370,143,L
2022-12-02T18:34:07Z,c8cu3c3m,serial-reaction-time,1,P,4,1,60,4123,0,1,489,431,H
2022-12-02T18:34:08Z,c8cu3c3m,serial-reaction-time,1,R,4,1,61,4123,0,3,438,313,T
2022-12-02T18:34:08Z,c8cu3c3m,serial-reaction-time,1,P,4,1,62,4123,0,2,380,132,H
2022-12-02T18:34:09Z,c8cu3c3m,serial-reaction-time,1,R,4,1,63,4123,0,3,364,323,T
2022-12-02T18:34:09Z,c8cu3c3m,serial-reaction-time,1,P,4,1,64,4123,0,3,366,233,H
2022-12-02T18:34:10Z,c8cu3c3m,serial-reaction-time,1,R,4,1,65,4123,0,4,444,334,H
2022-12-02T18:34:10Z,c8cu3c3m,serial-reaction-time,1,P,4,1,66,4123,0,4,384,344,H
2022-12-02T18:34:11Z,c8cu3c3m,serial-reaction-time,1,R,4,1,67,4123,0,4,423,444,R
2022-12-02T18:34:11Z,c8cu3c3m,serial-reaction-time,1,P,4,1,68,4123,0,1,367,441,H
2022-12-02T18:34:12Z,c8cu3c3m,serial-reaction-time,1,R,4,1,69,4123,0,1,342,411,H
2022-12-02T18:34:12Z,c8cu3c3m,serial-reaction-time,NA,P,4,1,70,4123,0,2,292,112,H
2022-12-02T18:34:13Z,c8cu3c3m,serial-reaction-time,1,P,4,0,70,4123,0,2,667,112,H
2022-12-02T18:34:13Z,c8cu3c3m,serial-reaction-time,1,R,4,1,71,4123,0,1,382,121,T
2022-12-02T18:34:14Z,c8cu3c3m,serial-reaction-time,NA,P,4,1,72,4123,0,3,446,213,H
2022-12-02T18:34:14Z,c8cu3c3m,serial-reaction-time,1,P,4,0,72,4123,0,3,593,213,H
2022-12-02T18:34:14Z,c8cu3c3m,serial-reaction-time,1,R,4,1,73,4123,0,1,356,131,T
2022-12-02T18:34:15Z,c8cu3c3m,serial-reaction-time,1,P,4,1,74,4123,0,4,338,314,H
2022-12-02T18:34:15Z,c8cu3c3m,serial-reaction-time,1,R,4,1,75,4123,0,3,350,143,L
2022-12-02T18:34:16Z,c8cu3c3m,serial-reaction-time,1,P,4,1,76,4123,0,1,324,431,H
2022-12-02T18:34:17Z,c8cu3c3m,serial-reaction-time,1,R,4,1,77,4123,0,2,570,312,L
2022-12-02T18:34:17Z,c8cu3c3m,serial-reaction-time,1,P,4,1,78,4123,0,2,278,122,H
2022-12-02T18:34:18Z,c8cu3c3m,serial-reaction-time,NA,R,4,1,79,4123,0,4,372,224,L
2022-12-02T18:34:18Z,c8cu3c3m,serial-reaction-time,1,R,4,0,79,4123,0,4,706,224,L
2022-12-02T18:34:18Z,c8cu3c3m,serial-reaction-time,NA,P,4,1,80,4123,0,3,383,243,H
2022-12-02T18:34:19Z,c8cu3c3m,serial-reaction-time,1,P,4,0,80,4123,0,3,532,243,H
2022-12-02T18:34:24Z,c8cu3c3m,html-keyboard-response,NA,NA,NA,NA,NA,NA,NA,NA,NA,NA,NA
2022-12-02T18:34:24Z,c8cu3c3m,html-keyboard-response,NA,NA,NA,NA,NA,NA,NA,NA,NA,NA,NA
2022-12-02T18:34:26Z,c8cu3c3m,serial-reaction-time,1,R,5,1,1,4123,0,2,323,2,X
2022-12-02T18:34:26Z,c8cu3c3m,serial-reaction-time,1,P,5,1,2,4123,0,4,303,24,X
2022-12-02T18:34:27Z,c8cu3c3m,serial-reaction-time,1,R,5,1,3,4123,0,4,288,244,L
2022-12-02T18:34:27Z,c8cu3c3m,serial-reaction-time,1,P,5,1,4,4123,0,1,338,441,H
2022-12-02T18:34:27Z,c8cu3c3m,serial-reaction-time,1,R,5,1,5,4123,0,1,280,411,H
2022-12-02T18:34:28Z,c8cu3c3m,serial-reaction-time,NA,P,5,1,6,4123,0,2,321,112,H
2022-12-02T18:34:28Z,c8cu3c3m,serial-reaction-time,1,P,5,0,6,4123,0,2,413,112,H
2022-12-02T18:34:28Z,c8cu3c3m,serial-reaction-time,1,R,5,1,7,4123,0,4,329,124,L
2022-12-02T18:34:29Z,c8cu3c3m,serial-reaction-time,1,P,5,1,8,4123,0,3,459,243,H
2022-12-02T18:34:30Z,c8cu3c3m,serial-reaction-time,1,R,5,1,9,4123,0,4,387,434,T
2022-12-02T18:34:30Z,c8cu3c3m,serial-reaction-time,1,P,5,1,10,4123,0,4,334,344,H
2022-12-02T18:34:31Z,c8cu3c3m,serial-reaction-time,1,R,5,1,11,4123,0,3,334,443,L
2022-12-02T18:34:31Z,c8cu3c3m,serial-reaction-time,1,P,5,1,12,4123,0,1,302,431,H
2022-12-02T18:34:31Z,c8cu3c3m,serial-reaction-time,NA,R,5,1,13,4123,0,4,325,314,H
2022-12-02T18:34:32Z,c8cu3c3m,serial-reaction-time,1,R,5,0,13,4123,0,4,421,314,H
2022-12-02T18:34:32Z,c8cu3c3m,serial-reaction-time,1,P,5,1,14,4123,0,2,466,142,H
2022-12-02T18:34:33Z,c8cu3c3m,serial-reaction-time,1,R,5,1,15,4123,0,4,361,424,T
2022-12-02T18:34:33Z,c8cu3c3m,serial-reaction-time,1,P,5,1,16,4123,0,3,349,243,H
2022-12-02T18:34:34Z,c8cu3c3m,serial-reaction-time,NA,R,5,1,17,4123,0,2,336,432,L
2022-12-02T18:34:34Z,c8cu3c3m,serial-reaction-time,1,R,5,0,17,4123,0,2,645,432,L
2022-12-02T18:34:34Z,c8cu3c3m,serial-reaction-time,1,P,5,1,18,4123,0,4,336,324,H
2022-12-02T18:34:35Z,c8cu3c3m,serial-reaction-time,1,R,5,1,19,4123,0,4,304,244,L
2022-12-02T18:34:35Z,c8cu3c3m,serial-reaction-time,NA,P,5,1,20,4123,0,1,304,441,H
2022-12-02T18:34:36Z,c8cu3c3m,serial-reaction-time,1,P,5,0,20,4123,0,1,646,441,H
2022-12-02T18:34:36Z,c8cu3c3m,serial-reaction-time,1,R,5,1,21,4123,0,2,392,412,L
2022-12-02T18:34:37Z,c8cu3c3m,serial-reaction-time,1,P,5,1,22,4123,0,2,319,122,H
2022-12-02T18:34:37Z,c8cu3c3m,serial-reaction-time,1,R,5,1,23,4123,0,1,407,221,L
2022-12-02T18:34:38Z,c8cu3c3m,serial-reaction-time,NA,P,5,1,24,4123,0,3,390,213,H
2022-12-02T18:34:38Z,c8cu3c3m,serial-reaction-time,1,P,5,0,24,4123,0,3,784,213,H
2022-12-02T18:34:39Z,c8cu3c3m,serial-reaction-time,1,R,5,1,25,4123,0,1,386,131,T
2022-12-02T18:34:39Z,c8cu3c3m,serial-reaction-time,1,P,5,1,26,4123,0,4,347,314,H
2022-12-02T18:34:40Z,c8cu3c3m,serial-reaction-time,NA,R,5,1,27,4123,0,3,366,143,L
2022-12-02T18:34:40Z,c8cu3c3m,serial-reaction-time,1,R,5,0,27,4123,0,3,665,143,L
2022-12-02T18:34:40Z,c8cu3c3m,serial-reaction-time,1,P,5,1,28,4123,0,1,358,431,H
2022-12-02T18:34:41Z,c8cu3c3m,serial-reaction-time,1,R,5,1,29,4123,0,2,417,312,L
2022-12-02T18:34:41Z,c8cu3c3m,serial-reaction-time,1,P,5,1,30,4123,0,2,262,122,H
2022-12-02T18:34:42Z,c8cu3c3m,serial-reaction-time,1,R,5,1,31,4123,0,3,356,223,H
2022-12-02T18:34:42Z,c8cu3c3m,serial-reaction-time,1,P,5,1,32,4123,0,3,333,233,H
2022-12-02T18:34:43Z,c8cu3c3m,serial-reaction-time,1,R,5,1,33,4123,0,2,342,332,L
2022-12-02T18:34:43Z,c8cu3c3m,serial-reaction-time,1,P,5,1,34,4123,0,4,346,324,H
2022-12-02T18:34:44Z,c8cu3c3m,serial-reaction-time,1,R,5,1,35,4123,0,3,398,243,H
2022-12-02T18:34:44Z,c8cu3c3m,serial-reaction-time,1,P,5,1,36,4123,0,1,343,431,H
2022-12-02T18:34:45Z,c8cu3c3m,serial-reaction-time,1,R,5,1,37,4123,0,1,335,311,L
2022-12-02T18:34:46Z,c8cu3c3m,serial-reaction-time,1,P,5,1,38,4123,0,2,651,112,H
2022-12-02T18:34:46Z,c8cu3c3m,serial-reaction-time,1,R,5,1,39,4123,0,2,417,122,H
2022-12-02T18:34:47Z,c8cu3c3m,serial-reaction-time,1,P,5,1,40,4123,0,3,348,223,H
2022-12-02T18:34:47Z,c8cu3c3m,serial-reaction-time,NA,R,5,1,41,4123,0,2,460,232,T
2022-12-02T18:34:47Z,c8cu3c3m,serial-reaction-time,1,R,5,0,41,4123,0,2,617,232,T
2022-12-02T18:34:48Z,c8cu3c3m,serial-reaction-time,1,P,5,1,42,4123,0,4,416,324,H
2022-12-02T18:34:49Z,c8cu3c3m,serial-reaction-time,1,R,5,1,43,4123,0,3,485,243,H
2022-12-02T18:34:49Z,c8cu3c3m,serial-reaction-time,1,P,5,1,44,4123,0,1,321,431,H
2022-12-02T18:34:50Z,c8cu3c3m,serial-reaction-time,1,R,5,1,45,4123,0,3,368,313,T
2022-12-02T18:34:50Z,c8cu3c3m,serial-reaction-time,1,P,5,1,46,4123,0,2,477,132,H
2022-12-02T18:34:51Z,c8cu3c3m,serial-reaction-time,1,R,5,1,47,4123,0,3,408,323,T
2022-12-02T18:34:51Z,c8cu3c3m,serial-reaction-time,1,P,5,1,48,4123,0,3,372,233,H
2022-12-02T18:34:52Z,c8cu3c3m,serial-reaction-time,1,R,5,1,49,4123,0,1,339,331,L
2022-12-02T18:34:52Z,c8cu3c3m,serial-reaction-time,1,P,5,1,50,4123,0,4,335,314,H
2022-12-02T18:34:53Z,c8cu3c3m,serial-reaction-time,1,R,5,1,51,4123,0,1,535,141,T
2022-12-02T18:34:53Z,c8cu3c3m,serial-reaction-time,1,P,5,1,52,4123,0,1,349,411,H
2022-12-02T18:34:54Z,c8cu3c3m,serial-reaction-time,1,R,5,1,53,4123,0,1,325,111,R
2022-12-02T18:34:54Z,c8cu3c3m,serial-reaction-time,1,P,5,1,54,4123,0,2,458,112,H
2022-12-02T18:34:55Z,c8cu3c3m,serial-reaction-time,1,R,5,1,55,4123,0,3,417,123,L
2022-12-02T18:34:55Z,c8cu3c3m,serial-reaction-time,1,P,5,1,56,4123,0,3,361,233,H
2022-12-02T18:34:56Z,c8cu3c3m,serial-reaction-time,NA,R,5,1,57,4123,0,2,294,332,L
2022-12-02T18:34:56Z,c8cu3c3m,serial-reaction-time,1,R,5,0,57,4123,0,2,567,332,L
2022-12-02T18:34:57Z,c8cu3c3m,serial-reaction-time,1,P,5,1,58,4123,0,4,394,324,H
2022-12-02T18:34:57Z,c8cu3c3m,serial-reaction-time,1,R,5,1,59,4123,0,3,468,243,H
2022-12-02T18:34:58Z,c8cu3c3m,serial-reaction-time,1,P,5,1,60,4123,0,1,343,431,H
2022-12-02T18:34:58Z,c8cu3c3m,serial-reaction-time,1,R,5,1,61,4123,0,1,237,311,L
2022-12-02T18:34:59Z,c8cu3c3m,serial-reaction-time,1,P,5,1,62,4123,0,2,421,112,H
2022-12-02T18:34:59Z,c8cu3c3m,serial-reaction-time,1,R,5,1,63,4123,0,3,484,123,L
2022-12-02T18:35:00Z,c8cu3c3m,serial-reaction-time,1,P,5,1,64,4123,0,3,367,233,H
2022-12-02T18:35:00Z,c8cu3c3m,serial-reaction-time,1,R,5,1,65,4123,0,4,335,334,H
2022-12-02T18:35:01Z,c8cu3c3m,serial-reaction-time,1,P,5,1,66,4123,0,4,345,344,H
2022-12-02T18:35:01Z,c8cu3c3m,serial-reaction-time,1,R,5,1,67,4123,0,4,358,444,R
2022-12-02T18:35:02Z,c8cu3c3m,serial-reaction-time,1,P,5,1,68,4123,0,1,469,441,H
2022-12-02T18:35:02Z,c8cu3c3m,serial-reaction-time,1,R,5,1,69,4123,0,1,367,411,H
2022-12-02T18:35:03Z,c8cu3c3m,serial-reaction-time,1,P,5,1,70,4123,0,2,381,112,H
2022-12-02T18:35:03Z,c8cu3c3m,serial-reaction-time,1,R,5,1,71,4123,0,3,409,123,L
2022-12-02T18:35:04Z,c8cu3c3m,serial-reaction-time,1,P,5,1,72,4123,0,3,367,233,H
2022-12-02T18:35:05Z,c8cu3c3m,serial-reaction-time,1,R,5,1,73,4123,0,2,567,332,L
2022-12-02T18:35:05Z,c8cu3c3m,serial-reaction-time,1,P,5,1,74,4123,0,4,414,324,H
2022-12-02T18:35:06Z,c8cu3c3m,serial-reaction-time,1,R,5,1,75,4123,0,4,337,244,L
2022-12-02T18:35:06Z,c8cu3c3m,serial-reaction-time,1,P,5,1,76,4123,0,1,382,441,H
2022-12-02T18:35:07Z,c8cu3c3m,serial-reaction-time,1,R,5,1,77,4123,0,3,390,413,L
2022-12-02T18:35:07Z,c8cu3c3m,serial-reaction-time,1,P,5,1,78,4123,0,2,545,132,H
2022-12-02T18:35:08Z,c8cu3c3m,serial-reaction-time,1,R,5,1,79,4123,0,3,406,323,T
2022-12-02T18:35:09Z,c8cu3c3m,serial-reaction-time,1,P,5,1,80,4123,0,3,363,233,H
2022-12-02T18:35:14Z,c8cu3c3m,html-keyboard-response,NA,NA,NA,NA,NA,NA,NA,NA,NA,NA,NA
2022-12-02T18:35:17Z,c8cu3c3m,html-keyboard-response,NA,NA,NA,NA,NA,NA,NA,NA,NA,NA,NA
2022-12-02T18:35:18Z,c8cu3c3m,fullscreen,NA,NA,NA,NA,NA,NA,NA,NA,NA,NA,NA
2022-12-02T18:35:00Z,98n9czmc,fullscreen,NA,NA,NA,NA,NA,NA,NA,NA,NA,NA,NA
2022-12-02T18:35:07Z,98n9czmc,html-keyboard-response,NA,NA,NA,NA,NA,NA,NA,NA,NA,NA,NA
2022-12-02T18:35:09Z,98n9czmc,serial-reaction-time,1,R,1,1,1,2314,0,3,855.3999998569489,3,X
2022-12-02T18:35:09Z,98n9czmc,serial-reaction-time,1,P,1,1,2,2314,0,2,378.40000009536743,32,X
2022-12-02T18:35:10Z,98n9czmc,serial-reaction-time,1,R,1,1,3,2314,0,4,362.89999985694885,324,L
2022-12-02T18:35:10Z,98n9czmc,serial-reaction-time,1,P,1,1,4,2314,0,3,373.19999980926514,243,H
2022-12-02T18:35:11Z,98n9czmc,serial-reaction-time,1,R,1,1,5,2314,0,4,369.90000009536743,434,T
2022-12-02T18:35:11Z,98n9czmc,serial-reaction-time,1,P,1,1,6,2314,0,1,419.2000000476837,341,H
2022-12-02T18:35:12Z,98n9czmc,serial-reaction-time,1,R,1,1,7,2314,0,3,331.7000000476837,413,L
2022-12-02T18:35:12Z,98n9czmc,serial-reaction-time,1,P,1,1,8,2314,0,4,356.7999999523163,134,H
2022-12-02T18:35:13Z,98n9czmc,serial-reaction-time,1,R,1,1,9,2314,0,2,401.7999999523163,342,L
2022-12-02T18:35:13Z,98n9czmc,serial-reaction-time,1,P,1,1,10,2314,0,2,298.2999999523163,422,H
2022-12-02T18:35:14Z,98n9czmc,serial-reaction-time,1,R,1,1,11,2314,0,2,370.2000000476837,222,R
2022-12-02T18:35:14Z,98n9czmc,serial-reaction-time,1,P,1,1,12,2314,0,3,365,223,H
2022-12-02T18:35:15Z,98n9czmc,serial-reaction-time,1,R,1,1,13,2314,0,2,362.5,232,T
2022-12-02T18:35:15Z,98n9czmc,serial-reaction-time,1,P,1,1,14,2314,0,1,356.59999990463257,321,H
2022-12-02T18:35:16Z,98n9czmc,serial-reaction-time,1,R,1,1,15,2314,0,1,293.90000009536743,211,L
2022-12-02T18:35:16Z,98n9czmc,serial-reaction-time,1,P,1,1,16,2314,0,4,401.89999985694885,114,H
2022-12-02T18:35:17Z,98n9czmc,serial-reaction-time,1,R,1,1,17,2314,0,4,303.90000009536743,144,H
2022-12-02T18:35:17Z,98n9czmc,serial-reaction-time,1,P,1,1,18,2314,0,2,404.90000009536743,442,H
2022-12-02T18:35:18Z,98n9czmc,serial-reaction-time,1,R,1,1,19,2314,0,1,364.09999990463257,421,L
2022-12-02T18:35:18Z,98n9czmc,serial-reaction-time,1,P,1,1,20,2314,0,3,383.7000000476837,213,H
2022-12-02T18:35:19Z,98n9czmc,serial-reaction-time,1,R,1,1,21,2314,0,2,381.2999999523163,132,L
2022-12-02T18:35:19Z,98n9czmc,serial-reaction-time,1,P,1,1,22,2314,0,1,354.60000014305115,321,H
2022-12-02T18:35:20Z,98n9czmc,serial-reaction-time,1,R,1,1,23,2314,0,3,354.5,213,H
2022-12-02T18:35:20Z,98n9czmc,serial-reaction-time,1,P,1,1,24,2314,0,4,294.2999999523163,134,H
2022-12-02T18:35:21Z,98n9czmc,serial-reaction-time,1,R,1,1,25,2314,0,3,397.10000014305115,343,T
2022-12-02T18:35:21Z,98n9czmc,serial-reaction-time,1,P,1,1,26,2314,0,2,290.7999999523163,432,H
2022-12-02T18:35:22Z,98n9czmc,serial-reaction-time,1,R,1,1,27,2314,0,4,335.2000000476837,324,L
2022-12-02T18:35:22Z,98n9czmc,serial-reaction-time,1,P,1,1,28,2314,0,3,307,243,H
2022-12-02T18:35:22Z,98n9czmc,serial-reaction-time,1,R,1,1,29,2314,0,2,373.2999999523163,432,H
2022-12-02T18:35:23Z,98n9czmc,serial-reaction-time,1,P,1,1,30,2314,0,1,342.09999990463257,321,H
2022-12-02T18:35:23Z,98n9czmc,serial-reaction-time,1,R,1,1,31,2314,0,3,345.59999990463257,213,H
2022-12-02T18:35:24Z,98n9czmc,serial-reaction-time,1,P,1,1,32,2314,0,4,259.59999990463257,134,H
2022-12-02T18:35:24Z,98n9czmc,serial-reaction-time,1,R,1,1,33,2314,0,4,388.7999999523163,344,L
2022-12-02T18:35:25Z,98n9czmc,serial-reaction-time,1,P,1,1,34,2314,0,2,366.5,442,H
2022-12-02T18:35:25Z,98n9czmc,serial-reaction-time,1,R,1,1,35,2314,0,4,350.30000019073486,424,T
2022-12-02T18:35:26Z,98n9czmc,serial-reaction-time,1,P,1,1,36,2314,0,3,335.7999999523163,243,H
2022-12-02T18:35:26Z,98n9czmc,serial-reaction-time,1,R,1,1,37,2314,0,3,342.2999999523163,433,L
2022-12-02T18:35:27Z,98n9czmc,serial-reaction-time,1,P,1,1,38,2314,0,1,333.2999999523163,331,H
2022-12-02T18:35:27Z,98n9czmc,serial-reaction-time,1,R,1,1,39,2314,0,1,296.5,311,H
2022-12-02T18:35:28Z,98n9czmc,serial-reaction-time,1,P,1,1,40,2314,0,4,319.40000009536743,114,H
2022-12-02T18:35:28Z,98n9czmc,serial-reaction-time,1,R,1,1,41,2314,0,3,377.59999990463257,143,L
2022-12-02T18:35:29Z,98n9czmc,serial-reaction-time,1,P,1,1,42,2314,0,2,331,432,H
2022-12-02T18:35:29Z,98n9czmc,serial-reaction-time,1,R,1,1,43,2314,0,1,329.5,321,H
2022-12-02T18:35:30Z,98n9czmc,serial-reaction-time,NA,P,1,1,44,2314,0,3,326.2000000476837,213,H
2022-12-02T18:35:30Z,98n9czmc,serial-reaction-time,1,P,1,0,44,2314,0,3,679.4000000953674,213,H
2022-12-02T18:35:30Z,98n9czmc,serial-reaction-time,NA,R,1,1,45,2314,0,1,401.39999985694885,131,T
2022-12-02T18:35:31Z,98n9czmc,serial-reaction-time,1,R,1,0,45,2314,0,1,701.8999998569489,131,T
2022-12-02T18:35:31Z,98n9czmc,serial-reaction-time,1,P,1,1,46,2314,0,1,339.60000014305115,311,H
2022-12-02T18:35:32Z,98n9czmc,serial-reaction-time,1,R,1,1,47,2314,0,4,381.5,114,H
2022-12-02T18:35:32Z,98n9czmc,serial-reaction-time,1,P,1,1,48,2314,0,4,270,144,H
2022-12-02T18:35:33Z,98n9czmc,serial-reaction-time,1,R,1,1,49,2314,0,4,353.59999990463257,444,R
2022-12-02T18:35:33Z,98n9czmc,serial-reaction-time,1,P,1,1,50,2314,0,2,410.19999980926514,442,H
2022-12-02T18:35:34Z,98n9czmc,serial-reaction-time,1,R,1,1,51,2314,0,2,268.69999980926514,422,H
2022-12-02T18:35:34Z,98n9czmc,serial-reaction-time,1,P,1,1,52,2314,0,3,381,223,H
2022-12-02T18:35:34Z,98n9czmc,serial-reaction-time,1,R,1,1,53,2314,0,3,201.79999995231628,233,H
2022-12-02T18:35:35Z,98n9czmc,serial-reaction-time,1,P,1,1,54,2314,0,1,315.7999999523163,331,H
2022-12-02T18:35:35Z,98n9czmc,serial-reaction-time,1,R,1,1,55,2314,0,1,237.09999990463257,311,H
2022-12-02T18:35:36Z,98n9czmc,serial-reaction-time,1,P,1,1,56,2314,0,4,284.39999985694885,114,H
2022-12-02T18:35:36Z,98n9czmc,serial-reaction-time,1,R,1,1,57,2314,0,4,214.59999990463257,144,H
2022-12-02T18:35:37Z,98n9czmc,serial-reaction-time,1,P,1,1,58,2314,0,2,422.39999985694885,442,H
2022-12-02T18:35:37Z,98n9czmc,serial-reaction-time,1,R,1,1,59,2314,0,3,431.40000009536743,423,L
2022-12-02T18:35:38Z,98n9czmc,serial-reaction-time,1,P,1,1,60,2314,0,3,349,233,H
2022-12-02T18:35:38Z,98n9czmc,serial-reaction-time,1,R,1,1,61,2314,0,3,361.10000014305115,333,R
2022-12-02T18:35:39Z,98n9czmc,serial-reaction-time,1,P,1,1,62,2314,0,1,354.7000000476837,331,H
2022-12-02T18:35:39Z,98n9czmc,serial-reaction-time,1,R,1,1,63,2314,0,3,345.39999985694885,313,T
2022-12-02T18:35:39Z,98n9czmc,serial-reaction-time,1,P,1,1,64,2314,0,4,307.40000009536743,134,H
2022-12-02T18:35:40Z,98n9czmc,serial-reaction-time,1,R,1,1,65,2314,0,4,334.7999999523163,344,L
2022-12-02T18:35:41Z,98n9czmc,serial-reaction-time,1,P,1,1,66,2314,0,2,473.5,442,H
2022-12-02T18:35:41Z,98n9czmc,serial-reaction-time,1,R,1,1,67,2314,0,3,364.40000009536743,423,L
2022-12-02T18:35:42Z,98n9czmc,serial-reaction-time,1,P,1,1,68,2314,0,3,330.7000000476837,233,H
2022-12-02T18:35:42Z,98n9czmc,serial-reaction-time,1,R,1,1,69,2314,0,2,352,332,L
2022-12-02T18:35:43Z,98n9czmc,serial-reaction-time,1,P,1,1,70,2314,0,1,383.2000000476837,321,H
2022-12-02T18:35:43Z,98n9czmc,serial-reaction-time,1,R,1,1,71,2314,0,3,437,213,H
2022-12-02T18:35:44Z,98n9czmc,serial-reaction-time,1,P,1,1,72,2314,0,4,330.2999999523163,134,H
2022-12-02T18:35:44Z,98n9czmc,serial-reaction-time,1,R,1,1,73,2314,0,1,471.5,341,H
2022-12-02T18:35:45Z,98n9czmc,serial-reaction-time,1,P,1,1,74,2314,0,2,373.5,412,H
2022-12-02T18:35:45Z,98n9czmc,serial-reaction-time,1,R,1,1,75,2314,0,3,335.39999985694885,123,L
2022-12-02T18:35:45Z,98n9czmc,serial-reaction-time,NA,P,1,1,76,2314,0,3,231.59999990463257,233,H
2022-12-02T18:35:46Z,98n9czmc,serial-reaction-time,1,P,1,0,76,2314,0,3,784,233,H
2022-12-02T18:35:46Z,98n9czmc,serial-reaction-time,1,R,1,1,77,2314,0,4,316.40000009536743,334,L
2022-12-02T18:35:47Z,98n9czmc,serial-reaction-time,1,P,1,1,78,2314,0,1,411.5,341,H
2022-12-02T18:35:48Z,98n9czmc,serial-reaction-time,1,R,1,1,79,2314,0,2,378.59999990463257,412,H
2022-12-02T18:35:48Z,98n9czmc,serial-reaction-time,1,P,1,1,80,2314,0,4,432.5,124,H
2022-12-02T18:35:53Z,98n9czmc,html-keyboard-response,NA,NA,NA,NA,NA,NA,NA,NA,NA,NA,NA
2022-12-02T18:35:54Z,98n9czmc,html-keyboard-response,NA,NA,NA,NA,NA,NA,NA,NA,NA,NA,NA
2022-12-02T18:35:56Z,98n9czmc,serial-reaction-time,1,R,2,1,1,2314,0,4,409,4,X
2022-12-02T18:35:56Z,98n9czmc,serial-reaction-time,1,P,2,1,2,2314,0,2,440,42,X
2022-12-02T18:35:57Z,98n9czmc,serial-reaction-time,1,R,2,1,3,2314,0,3,369.59999990463257,423,L
2022-12-02T18:35:57Z,98n9czmc,serial-reaction-time,1,P,2,1,4,2314,0,3,321,233,H
2022-12-02T18:35:58Z,98n9czmc,serial-reaction-time,1,R,2,1,5,2314,0,2,401.60000014305115,332,L
2022-12-02T18:35:59Z,98n9czmc,serial-reaction-time,1,P,2,1,6,2314,0,1,589.8999998569489,321,H
2022-12-02T18:35:59Z,98n9czmc,serial-reaction-time,1,R,2,1,7,2314,0,1,269,211,L
2022-12-02T18:36:00Z,98n9czmc,serial-reaction-time,1,P,2,1,8,2314,0,4,435.5,114,H
2022-12-02T18:36:00Z,98n9czmc,serial-reaction-time,1,R,2,1,9,2314,0,1,410.40000009536743,141,T
2022-12-02T18:36:01Z,98n9czmc,serial-reaction-time,1,P,2,1,10,2314,0,2,430.7999999523163,412,H
2022-12-02T18:36:01Z,98n9czmc,serial-reaction-time,1,R,2,1,11,2314,0,3,422.59999990463257,123,L
2022-12-02T18:36:02Z,98n9czmc,serial-reaction-time,1,P,2,1,12,2314,0,3,367.2999999523163,233,H
2022-12-02T18:36:02Z,98n9czmc,serial-reaction-time,1,R,2,1,13,2314,0,4,329,334,L
2022-12-02T18:36:03Z,98n9czmc,serial-reaction-time,1,P,2,1,14,2314,0,1,358.5,341,H
2022-12-02T18:36:03Z,98n9czmc,serial-reaction-time,1,R,2,1,15,2314,0,1,313.2000000476837,411,L
2022-12-02T18:36:04Z,98n9czmc,serial-reaction-time,1,P,2,1,16,2314,0,4,332.40000009536743,114,H
2022-12-02T18:36:04Z,98n9czmc,serial-reaction-time,1,R,2,1,17,2314,0,4,291.40000009536743,144,H
2022-12-02T18:36:05Z,98n9czmc,serial-reaction-time,1,P,2,1,18,2314,0,2,415.30000019073486,442,H
2022-12-02T18:36:05Z,98n9czmc,serial-reaction-time,1,R,2,1,19,2314,0,1,352.7999999523163,421,L
2022-12-02T18:36:06Z,98n9czmc,serial-reaction-time,1,P,2,1,20,2314,0,3,350,213,H
2022-12-02T18:36:06Z,98n9czmc,serial-reaction-time,1,R,2,1,21,2314,0,3,304.40000009536743,133,L
2022-12-02T18:36:07Z,98n9czmc,serial-reaction-time,1,P,2,1,22,2314,0,1,294.80000019073486,331,H
2022-12-02T18:36:07Z,98n9czmc,serial-reaction-time,1,R,2,1,23,2314,0,1,305,311,H
2022-12-02T18:36:07Z,98n9czmc,serial-reaction-time,1,P,2,1,24,2314,0,4,378.90000009536743,114,H
2022-12-02T18:36:08Z,98n9czmc,serial-reaction-time,1,R,2,1,25,2314,0,3,430.7999999523163,143,L
2022-12-02T18:36:09Z,98n9czmc,serial-reaction-time,1,P,2,1,26,2314,0,2,366.40000009536743,432,H
2022-12-02T18:36:09Z,98n9czmc,serial-reaction-time,1,R,2,1,27,2314,0,2,304.59999990463257,322,L
2022-12-02T18:36:09Z,98n9czmc,serial-reaction-time,1,P,2,1,28,2314,0,3,334.89999985694885,223,H
2022-12-02T18:36:10Z,98n9czmc,serial-reaction-time,1,R,2,1,29,2314,0,4,363.19999980926514,234,L
2022-12-02T18:36:10Z,98n9czmc,serial-reaction-time,1,P,2,1,30,2314,0,1,358.59999990463257,341,H
2022-12-02T18:36:11Z,98n9czmc,serial-reaction-time,1,R,2,1,31,2314,0,3,478.39999985694885,413,L
2022-12-02T18:36:12Z,98n9czmc,serial-reaction-time,1,P,2,1,32,2314,0,4,320.40000009536743,134,H
2022-12-02T18:36:12Z,98n9czmc,serial-reaction-time,1,R,2,1,33,2314,0,2,449.09999990463257,342,L
2022-12-02T18:36:12Z,98n9czmc,serial-reaction-time,1,P,2,1,34,2314,0,2,257.10000014305115,422,H
2022-12-02T18:36:13Z,98n9czmc,serial-reaction-time,1,R,2,1,35,2314,0,4,317.89999985694885,224,L
2022-12-02T18:36:13Z,98n9czmc,serial-reaction-time,1,P,2,1,36,2314,0,3,355.89999985694885,243,H
2022-12-02T18:36:14Z,98n9czmc,serial-reaction-time,NA,R,2,1,37,2314,0,2,374.59999990463257,432,H
2022-12-02T18:36:14Z,98n9czmc,serial-reaction-time,1,R,2,0,37,2314,0,2,550.0999999046326,432,H
2022-12-02T18:36:15Z,98n9czmc,serial-reaction-time,1,P,2,1,38,2314,0,1,353.60000014305115,321,H
2022-12-02T18:36:15Z,98n9czmc,serial-reaction-time,1,R,2,1,39,2314,0,1,326.2000000476837,211,L
2022-12-02T18:36:16Z,98n9czmc,serial-reaction-time,1,P,2,1,40,2314,0,4,336.30000019073486,114,H
2022-12-02T18:36:16Z,98n9czmc,serial-reaction-time,1,R,2,1,41,2314,0,2,392.2000000476837,142,L
2022-12-02T18:36:17Z,98n9czmc,serial-reaction-time,1,P,2,1,42,2314,0,2,321.90000009536743,422,H
2022-12-02T18:36:17Z,98n9czmc,serial-reaction-time,1,R,2,1,43,2314,0,2,349.80000019073486,222,R
2022-12-02T18:36:18Z,98n9czmc,serial-reaction-time,1,P,2,1,44,2314,0,3,400,223,H
2022-12-02T18:36:18Z,98n9czmc,serial-reaction-time,1,R,2,1,45,2314,0,3,300.59999990463257,233,H
2022-12-02T18:36:18Z,98n9czmc,serial-reaction-time,1,P,2,1,46,2314,0,1,369.2999999523163,331,H
2022-12-02T18:36:19Z,98n9czmc,serial-reaction-time,1,R,2,1,47,2314,0,1,258.40000009536743,311,H
2022-12-02T18:36:19Z,98n9czmc,serial-reaction-time,1,P,2,1,48,2314,0,4,295,114,H
2022-12-02T18:36:20Z,98n9czmc,serial-reaction-time,NA,R,2,1,49,2314,0,1,212.70000004768372,141,T
2022-12-02T18:36:20Z,98n9czmc,serial-reaction-time,1,R,2,0,49,2314,0,1,502.59999990463257,141,T
2022-12-02T18:36:20Z,98n9czmc,serial-reaction-time,1,P,2,1,50,2314,0,2,399.09999990463257,412,H
2022-12-02T18:36:21Z,98n9czmc,serial-reaction-time,1,R,2,1,51,2314,0,2,286.5,122,L
2022-12-02T18:36:21Z,98n9czmc,serial-reaction-time,1,P,2,1,52,2314,0,3,303.39999985694885,223,H
2022-12-02T18:36:22Z,98n9czmc,serial-reaction-time,1,R,2,1,53,2314,0,4,372.60000014305115,234,L
2022-12-02T18:36:22Z,98n9czmc,serial-reaction-time,1,P,2,1,54,2314,0,1,364.5,341,H
2022-12-02T18:36:23Z,98n9czmc,serial-reaction-time,1,R,2,1,55,2314,0,1,264.5,411,L
2022-12-02T18:36:23Z,98n9czmc,serial-reaction-time,NA,P,2,1,56,2314,0,4,330.40000009536743,114,H
2022-12-02T18:36:24Z,98n9czmc,serial-reaction-time,1,P,2,0,56,2314,0,4,623.3000001907349,114,H
2022-12-02T18:36:24Z,98n9czmc,serial-reaction-time,NA,R,2,1,57,2314,0,3,306.09999990463257,143,L
2022-12-02T18:36:24Z,98n9czmc,serial-reaction-time,1,R,2,0,57,2314,0,3,518.7999997138977,143,L
2022-12-02T18:36:25Z,98n9czmc,serial-reaction-time,1,P,2,1,58,2314,0,2,377.2000000476837,432,H
2022-12-02T18:36:25Z,98n9czmc,serial-reaction-time,1,R,2,1,59,2314,0,4,365.40000009536743,324,L
2022-12-02T18:36:26Z,98n9czmc,serial-reaction-time,1,P,2,1,60,2314,0,3,378.2999999523163,243,H
2022-12-02T18:36:26Z,98n9czmc,serial-reaction-time,1,R,2,1,61,2314,0,1,411.7999999523163,431,L
2022-12-02T18:36:27Z,98n9czmc,serial-reaction-time,1,P,2,1,62,2314,0,1,316.09999990463257,311,H
2022-12-02T18:36:27Z,98n9czmc,serial-reaction-time,1,R,2,1,63,2314,0,3,312.7999999523163,113,L
2022-12-02T18:36:28Z,98n9czmc,serial-reaction-time,1,P,2,1,64,2314,0,4,343,134,H
2022-12-02T18:36:28Z,98n9czmc,serial-reaction-time,1,R,2,1,65,2314,0,3,370.19999980926514,343,T
2022-12-02T18:36:29Z,98n9czmc,serial-reaction-time,1,P,2,1,66,2314,0,2,373.10000014305115,432,H
2022-12-02T18:36:29Z,98n9czmc,serial-reaction-time,1,R,2,1,67,2314,0,4,361.90000009536743,324,L
2022-12-02T18:36:30Z,98n9czmc,serial-reaction-time,1,P,2,1,68,2314,0,3,347.2999999523163,243,H
2022-12-02T18:36:30Z,98n9czmc,serial-reaction-time,1,R,2,1,69,2314,0,2,362.5,432,H
2022-12-02T18:36:31Z,98n9czmc,serial-reaction-time,1,P,2,1,70,2314,0,1,366.09999990463257,321,H
2022-12-02T18:36:31Z,98n9czmc,serial-reaction-time,1,R,2,1,71,2314,0,3,397.2999999523163,213,H
2022-12-02T18:36:32Z,98n9czmc,serial-reaction-time,1,P,2,1,72,2314,0,4,300.09999990463257,134,H
2022-12-02T18:36:32Z,98n9czmc,serial-reaction-time,1,R,2,1,73,2314,0,3,404,343,T
2022-12-02T18:36:33Z,98n9czmc,serial-reaction-time,1,P,2,1,74,2314,0,2,414.7999999523163,432,H
2022-12-02T18:36:33Z,98n9czmc,serial-reaction-time,1,R,2,1,75,2314,0,1,281.7999999523163,321,H
2022-12-02T18:36:34Z,98n9czmc,serial-reaction-time,1,P,2,1,76,2314,0,3,325,213,H
2022-12-02T18:36:34Z,98n9czmc,serial-reaction-time,1,R,2,1,77,2314,0,1,391.60000014305115,131,T
2022-12-02T18:36:35Z,98n9czmc,serial-reaction-time,1,P,2,1,78,2314,0,1,368.7999999523163,311,H
2022-12-02T18:36:35Z,98n9czmc,serial-reaction-time,1,R,2,1,79,2314,0,1,346.09999990463257,111,R
2022-12-02T18:36:36Z,98n9czmc,serial-reaction-time,1,P,2,1,80,2314,0,4,363.19999980926514,114,H
2022-12-02T18:36:41Z,98n9czmc,html-keyboard-response,NA,NA,NA,NA,NA,NA,NA,NA,NA,NA,NA
2022-12-02T18:36:41Z,98n9czmc,html-keyboard-response,NA,NA,NA,NA,NA,NA,NA,NA,NA,NA,NA
2022-12-02T18:36:43Z,98n9czmc,serial-reaction-time,1,R,3,1,1,2314,0,4,374.59999990463257,4,X
2022-12-02T18:36:43Z,98n9czmc,serial-reaction-time,1,P,3,1,2,2314,0,2,360.7000000476837,42,X
2022-12-02T18:36:44Z,98n9czmc,serial-reaction-time,1,R,3,1,3,2314,0,2,219.90000009536743,422,H
2022-12-02T18:36:44Z,98n9czmc,serial-reaction-time,1,P,3,1,4,2314,0,3,305.7000000476837,223,H
2022-12-02T18:36:45Z,98n9czmc,serial-reaction-time,NA,R,3,1,5,2314,0,2,344.7000000476837,232,T
2022-12-02T18:36:45Z,98n9czmc,serial-reaction-time,1,R,3,0,5,2314,0,2,646.5999999046326,232,T
2022-12-02T18:36:45Z,98n9czmc,serial-reaction-time,1,P,3,1,6,2314,0,1,395.7000000476837,321,H
2022-12-02T18:36:46Z,98n9czmc,serial-reaction-time,1,R,3,1,7,2314,0,1,274.30000019073486,211,L
2022-12-02T18:36:46Z,98n9czmc,serial-reaction-time,NA,P,3,1,8,2314,0,4,360.09999990463257,114,H
2022-12-02T18:36:47Z,98n9czmc,serial-reaction-time,1,P,3,0,8,2314,0,4,638.6999998092651,114,H
2022-12-02T18:36:47Z,98n9czmc,serial-reaction-time,1,R,3,1,9,2314,0,3,378.5,143,L
2022-12-02T18:36:48Z,98n9czmc,serial-reaction-time,NA,P,3,1,10,2314,0,2,353.09999990463257,432,H
2022-12-02T18:36:48Z,98n9czmc,serial-reaction-time,1,P,3,0,10,2314,0,2,558.7999997138977,432,H
2022-12-02T18:36:48Z,98n9czmc,serial-reaction-time,1,R,3,1,11,2314,0,3,356.59999990463257,323,T
2022-12-02T18:36:49Z,98n9czmc,serial-reaction-time,1,P,3,1,12,2314,0,3,284.59999990463257,233,H
2022-12-02T18:36:49Z,98n9czmc,serial-reaction-time,1,R,3,1,13,2314,0,1,386.59999990463257,331,H
2022-12-02T18:36:50Z,98n9czmc,serial-reaction-time,1,P,3,1,14,2314,0,1,221.79999995231628,311,H
2022-12-02T18:36:50Z,98n9czmc,serial-reaction-time,1,R,3,1,15,2314,0,4,359,114,H
2022-12-02T18:36:50Z,98n9czmc,serial-reaction-time,1,P,3,1,16,2314,0,4,245.5,144,H
2022-12-02T18:36:51Z,98n9czmc,serial-reaction-time,1,R,3,1,17,2314,0,2,317.10000014305115,442,H
2022-12-02T18:36:51Z,98n9czmc,serial-reaction-time,1,P,3,1,18,2314,0,2,205.5,422,H
2022-12-02T18:36:52Z,98n9czmc,serial-reaction-time,1,R,3,1,19,2314,0,4,328.09999990463257,224,L
2022-12-02T18:36:52Z,98n9czmc,serial-reaction-time,NA,P,3,1,20,2314,0,3,232.6999998092651,243,H
2022-12-02T18:36:52Z,98n9czmc,serial-reaction-time,1,P,3,0,20,2314,0,3,569.8999996185303,243,H
2022-12-02T18:36:53Z,98n9czmc,serial-reaction-time,1,R,3,1,21,2314,0,1,471.10000014305115,431,L
2022-12-02T18:36:53Z,98n9czmc,serial-reaction-time,1,P,3,1,22,2314,0,1,222.09999990463257,311,H
2022-12-02T18:36:54Z,98n9czmc,serial-reaction-time,1,R,3,1,23,2314,0,3,379.89999985694885,113,L
2022-12-02T18:36:54Z,98n9czmc,serial-reaction-time,1,P,3,1,24,2314,0,4,357.5,134,H
2022-12-02T18:36:55Z,98n9czmc,serial-reaction-time,1,R,3,1,25,2314,0,2,415.2999999523163,342,L
2022-12-02T18:36:55Z,98n9czmc,serial-reaction-time,1,P,3,1,26,2314,0,2,263.30000019073486,422,H
2022-12-02T18:36:56Z,98n9czmc,serial-reaction-time,1,R,3,1,27,2314,0,4,305.7999999523163,224,L
2022-12-02T18:36:56Z,98n9czmc,serial-reaction-time,1,P,3,1,28,2314,0,3,414.2999999523163,243,H
2022-12-02T18:36:57Z,98n9czmc,serial-reaction-time,1,R,3,1,29,2314,0,1,377.09999990463257,431,L
2022-12-02T18:36:57Z,98n9czmc,serial-reaction-time,1,P,3,1,30,2314,0,1,284.2999999523163,311,H
2022-12-02T18:36:58Z,98n9czmc,serial-reaction-time,1,R,3,1,31,2314,0,4,305.90000009536743,114,H
2022-12-02T18:36:58Z,98n9czmc,serial-reaction-time,1,P,3,1,32,2314,0,4,269.5,144,H
2022-12-02T18:36:59Z,98n9czmc,serial-reaction-time,1,R,3,1,33,2314,0,2,397.5,442,H
2022-12-02T18:36:59Z,98n9czmc,serial-reaction-time,1,P,3,1,34,2314,0,2,213.10000014305115,422,H
2022-12-02T18:36:59Z,98n9czmc,serial-reaction-time,1,R,3,1,35,2314,0,4,293.09999990463257,224,L
2022-12-02T18:37:00Z,98n9czmc,serial-reaction-time,NA,P,3,1,36,2314,0,3,233.29999995231628,243,H
2022-12-02T18:37:00Z,98n9czmc,serial-reaction-time,1,P,3,0,36,2314,0,3,574.2999999523163,243,H
2022-12-02T18:37:01Z,98n9czmc,serial-reaction-time,1,R,3,1,37,2314,0,2,383.2999999523163,432,H
2022-12-02T18:37:01Z,98n9czmc,serial-reaction-time,NA,P,3,1,38,2314,0,1,251.09999990463257,321,H
2022-12-02T18:37:01Z,98n9czmc,serial-reaction-time,1,P,3,0,38,2314,0,1,496.7999997138977,321,H
2022-12-02T18:37:02Z,98n9czmc,serial-reaction-time,1,R,3,1,39,2314,0,3,415.90000009536743,213,H
2022-12-02T18:37:02Z,98n9czmc,serial-reaction-time,1,P,3,1,40,2314,0,4,346.59999990463257,134,H
2022-12-02T18:37:03Z,98n9czmc,serial-reaction-time,1,R,3,1,41,2314,0,2,426.39999985694885,342,L
2022-12-02T18:37:03Z,98n9czmc,serial-reaction-time,1,P,3,1,42,2314,0,2,332,422,H
2022-12-02T18:37:04Z,98n9czmc,serial-reaction-time,1,R,3,1,43,2314,0,4,420.40000009536743,224,L
2022-12-02T18:37:04Z,98n9czmc,serial-reaction-time,1,P,3,1,44,2314,0,3,407.19999980926514,243,H
2022-12-02T18:37:05Z,98n9czmc,serial-reaction-time,1,R,3,1,45,2314,0,3,381.80000019073486,433,L
2022-12-02T18:37:05Z,98n9czmc,serial-reaction-time,1,P,3,1,46,2314,0,1,435.2000000476837,331,H
2022-12-02T18:37:06Z,98n9czmc,serial-reaction-time,1,R,3,1,47,2314,0,2,575.7000000476837,312,L
2022-12-02T18:37:07Z,98n9czmc,serial-reaction-time,1,P,3,1,48,2314,0,4,383.2000000476837,124,H
2022-12-02T18:37:07Z,98n9czmc,serial-reaction-time,1,R,3,1,49,2314,0,2,424.09999990463257,242,T
2022-12-02T18:37:08Z,98n9czmc,serial-reaction-time,1,P,3,1,50,2314,0,2,357.2999999523163,422,H
2022-12-02T18:37:08Z,98n9czmc,serial-reaction-time,1,R,3,1,51,2314,0,2,344.09999990463257,222,R
2022-12-02T18:37:09Z,98n9czmc,serial-reaction-time,1,P,3,1,52,2314,0,3,391.59999990463257,223,H
2022-12-02T18:37:09Z,98n9czmc,serial-reaction-time,1,R,3,1,53,2314,0,1,361.59999990463257,231,L
2022-12-02T18:37:10Z,98n9czmc,serial-reaction-time,1,P,3,1,54,2314,0,1,301.5,311,H
2022-12-02T18:37:10Z,98n9czmc,serial-reaction-time,1,R,3,1,55,2314,0,3,321.7999999523163,113,L
2022-12-02T18:37:11Z,98n9czmc,serial-reaction-time,1,P,3,1,56,2314,0,4,321.2000000476837,134,H
2022-12-02T18:37:11Z,98n9czmc,serial-reaction-time,1,R,3,1,57,2314,0,1,419.09999990463257,341,H
2022-12-02T18:37:12Z,98n9czmc,serial-reaction-time,NA,P,3,1,58,2314,0,2,290.59999990463257,412,H
2022-12-02T18:37:12Z,98n9czmc,serial-reaction-time,1,P,3,0,58,2314,0,2,720,412,H
2022-12-02T18:37:13Z,98n9czmc,serial-reaction-time,1,R,3,1,59,2314,0,4,351.69999980926514,124,H
2022-12-02T18:37:13Z,98n9czmc,serial-reaction-time,1,P,3,1,60,2314,0,3,336.5,243,H
2022-12-02T18:37:13Z,98n9czmc,serial-reaction-time,1,R,3,1,61,2314,0,2,375.2000000476837,432,H
2022-12-02T18:37:14Z,98n9czmc,serial-reaction-time,1,P,3,1,62,2314,0,1,344.60000014305115,321,H
2022-12-02T18:37:14Z,98n9czmc,serial-reaction-time,1,R,3,1,63,2314,0,3,379.90000009536743,213,H
2022-12-02T18:37:15Z,98n9czmc,serial-reaction-time,1,P,3,1,64,2314,0,4,306.90000009536743,134,H
2022-12-02T18:37:15Z,98n9czmc,serial-reaction-time,1,R,3,1,65,2314,0,4,341.7000000476837,344,L
2022-12-02T18:37:16Z,98n9czmc,serial-reaction-time,1,P,3,1,66,2314,0,2,330.10000014305115,442,H
2022-12-02T18:37:16Z,98n9czmc,serial-reaction-time,1,R,3,1,67,2314,0,4,364.5,424,T
2022-12-02T18:37:17Z,98n9czmc,serial-reaction-time,1,P,3,1,68,2314,0,3,372.5,243,H
2022-12-02T18:37:17Z,98n9czmc,serial-reaction-time,1,R,3,1,69,2314,0,2,321.5,432,H
2022-12-02T18:37:18Z,98n9czmc,serial-reaction-time,1,P,3,1,70,2314,0,1,300.40000009536743,321,H
2022-12-02T18:37:18Z,98n9czmc,serial-reaction-time,1,R,3,1,71,2314,0,2,447.10000014305115,212,T
2022-12-02T18:37:19Z,98n9czmc,serial-reaction-time,1,P,3,1,72,2314,0,4,396.40000009536743,124,H
2022-12-02T18:37:19Z,98n9czmc,serial-reaction-time,1,R,3,1,73,2314,0,2,480.2000000476837,242,T
2022-12-02T18:37:20Z,98n9czmc,serial-reaction-time,1,P,3,1,74,2314,0,2,308.7999999523163,422,H
2022-12-02T18:37:20Z,98n9czmc,serial-reaction-time,1,R,3,1,75,2314,0,2,353.5,222,R
2022-12-02T18:37:21Z,98n9czmc,serial-reaction-time,1,P,3,1,76,2314,0,3,352.2000000476837,223,H
2022-12-02T18:37:21Z,98n9czmc,serial-reaction-time,1,R,3,1,77,2314,0,3,329.10000014305115,233,H
2022-12-02T18:37:22Z,98n9czmc,serial-reaction-time,1,P,3,1,78,2314,0,1,624.5999999046326,331,H
2022-12-02T18:37:23Z,98n9czmc,serial-reaction-time,1,R,3,1,79,2314,0,4,474.2000000476837,314,L
2022-12-02T18:37:23Z,98n9czmc,serial-reaction-time,1,P,3,1,80,2314,0,4,280.7999999523163,144,H
2022-12-02T18:37:28Z,98n9czmc,html-keyboard-response,NA,NA,NA,NA,NA,NA,NA,NA,NA,NA,NA
2022-12-02T18:37:29Z,98n9czmc,html-keyboard-response,NA,NA,NA,NA,NA,NA,NA,NA,NA,NA,NA
2022-12-02T18:37:30Z,98n9czmc,serial-reaction-time,1,R,4,1,1,2314,0,2,384.2000000476837,2,X
2022-12-02T18:37:31Z,98n9czmc,serial-reaction-time,1,P,4,1,2,2314,0,2,236.79999995231628,22,X
2022-12-02T18:37:31Z,98n9czmc,serial-reaction-time,1,R,4,1,3,2314,0,3,300.2000000476837,223,H
2022-12-02T18:37:31Z,98n9czmc,serial-reaction-time,1,P,4,1,4,2314,0,3,226.29999995231628,233,H
2022-12-02T18:37:32Z,98n9czmc,serial-reaction-time,1,R,4,1,5,2314,0,1,315.2999999523163,331,H
2022-12-02T18:37:32Z,98n9czmc,serial-reaction-time,1,P,4,1,6,2314,0,1,190.20000004768372,311,H
2022-12-02T18:37:33Z,98n9czmc,serial-reaction-time,1,R,4,1,7,2314,0,4,337.09999990463257,114,H
2022-12-02T18:37:33Z,98n9czmc,serial-reaction-time,1,P,4,1,8,2314,0,4,168.20000004768372,144,H
2022-12-02T18:37:33Z,98n9czmc,serial-reaction-time,NA,R,4,1,9,2314,0,3,302,443,L
2022-12-02T18:37:34Z,98n9czmc,serial-reaction-time,1,R,4,0,9,2314,0,3,548.6000001430511,443,L
2022-12-02T18:37:34Z,98n9czmc,serial-reaction-time,1,P,4,1,10,2314,0,2,345,432,H
2022-12-02T18:37:35Z,98n9czmc,serial-reaction-time,1,R,4,1,11,2314,0,4,458.7000000476837,324,L
2022-12-02T18:37:35Z,98n9czmc,serial-reaction-time,1,P,4,1,12,2314,0,3,353.90000009536743,243,H
2022-12-02T18:37:36Z,98n9czmc,serial-reaction-time,1,R,4,1,13,2314,0,2,357.7999999523163,432,H
2022-12-02T18:37:36Z,98n9czmc,serial-reaction-time,1,P,4,1,14,2314,0,1,414.89999985694885,321,H
2022-12-02T18:37:37Z,98n9czmc,serial-reaction-time,1,R,4,1,15,2314,0,3,374.7000000476837,213,H
2022-12-02T18:37:37Z,98n9czmc,serial-reaction-time,1,P,4,1,16,2314,0,4,304.39999985694885,134,H
2022-12-02T18:37:38Z,98n9czmc,serial-reaction-time,1,R,4,1,17,2314,0,4,477.5,344,L
2022-12-02T18:37:38Z,98n9czmc,serial-reaction-time,1,P,4,1,18,2314,0,2,376,442,H
2022-12-02T18:37:39Z,98n9czmc,serial-reaction-time,1,R,4,1,19,2314,0,1,386.19999980926514,421,L
2022-12-02T18:37:39Z,98n9czmc,serial-reaction-time,1,P,4,1,20,2314,0,3,354.5,213,H
2022-12-02T18:37:40Z,98n9czmc,serial-reaction-time,1,R,4,1,21,2314,0,4,334.59999990463257,134,H
2022-12-02T18:37:40Z,98n9czmc,serial-reaction-time,NA,P,4,1,22,2314,0,1,399.2000000476837,341,H
2022-12-02T18:37:41Z,98n9czmc,serial-reaction-time,1,P,4,0,22,2314,0,1,707.7000000476837,341,H
2022-12-02T18:37:41Z,98n9czmc,serial-reaction-time,1,R,4,1,23,2314,0,4,488.60000014305115,414,T
2022-12-02T18:37:42Z,98n9czmc,serial-reaction-time,1,P,4,1,24,2314,0,4,328,144,H
2022-12-02T18:37:42Z,98n9czmc,serial-reaction-time,1,R,4,1,25,2314,0,1,392.89999985694885,441,L
2022-12-02T18:37:43Z,98n9czmc,serial-reaction-time,1,P,4,1,26,2314,0,2,480,412,H
2022-12-02T18:37:43Z,98n9czmc,serial-reaction-time,1,R,4,1,27,2314,0,1,403.59999990463257,121,T
2022-12-02T18:37:44Z,98n9czmc,serial-reaction-time,1,P,4,1,28,2314,0,3,459.39999985694885,213,H
2022-12-02T18:37:44Z,98n9czmc,serial-reaction-time,1,R,4,1,29,2314,0,4,306.2000000476837,134,H
2022-12-02T18:37:45Z,98n9czmc,serial-reaction-time,1,P,4,1,30,2314,0,1,464.7999999523163,341,H
2022-12-02T18:37:45Z,98n9czmc,serial-reaction-time,1,R,4,1,31,2314,0,4,409,414,T
2022-12-02T18:37:46Z,98n9czmc,serial-reaction-time,1,P,4,1,32,2314,0,4,397.90000009536743,144,H
2022-12-02T18:37:47Z,98n9czmc,serial-reaction-time,1,R,4,1,33,2314,0,4,385,444,R
2022-12-02T18:37:47Z,98n9czmc,serial-reaction-time,1,P,4,1,34,2314,0,2,355,442,H
2022-12-02T18:37:48Z,98n9czmc,serial-reaction-time,1,R,4,1,35,2314,0,1,401.59999990463257,421,L
2022-12-02T18:37:48Z,98n9czmc,serial-reaction-time,1,P,4,1,36,2314,0,3,337.7000000476837,213,H
2022-12-02T18:37:49Z,98n9czmc,serial-reaction-time,1,R,4,1,37,2314,0,1,573.8999998569489,131,T
2022-12-02T18:37:49Z,98n9czmc,serial-reaction-time,1,P,4,1,38,2314,0,1,335.09999990463257,311,H
2022-12-02T18:37:50Z,98n9czmc,serial-reaction-time,1,R,4,1,39,2314,0,1,337,111,R
2022-12-02T18:37:50Z,98n9czmc,serial-reaction-time,1,P,4,1,40,2314,0,4,371.5,114,H
2022-12-02T18:37:51Z,98n9czmc,serial-reaction-time,1,R,4,1,41,2314,0,2,381.39999985694885,142,L
2022-12-02T18:37:51Z,98n9czmc,serial-reaction-time,1,P,4,1,42,2314,0,2,272.2999999523163,422,H
2022-12-02T18:37:52Z,98n9czmc,serial-reaction-time,1,R,4,1,43,2314,0,1,372.5,221,L
2022-12-02T18:37:52Z,98n9czmc,serial-reaction-time,NA,P,4,1,44,2314,0,3,363.2999999523163,213,H
2022-12-02T18:37:52Z,98n9czmc,serial-reaction-time,1,P,4,0,44,2314,0,3,673.8999998569489,213,H
2022-12-02T18:37:53Z,98n9czmc,serial-reaction-time,1,R,4,1,45,2314,0,4,354,134,H
2022-12-02T18:37:53Z,98n9czmc,serial-reaction-time,1,P,4,1,46,2314,0,1,380.5,341,H
2022-12-02T18:37:54Z,98n9czmc,serial-reaction-time,NA,R,4,1,47,2314,0,3,414.90000009536743,413,L
2022-12-02T18:37:55Z,98n9czmc,serial-reaction-time,1,R,4,0,47,2314,0,3,917.7000002861024,413,L
2022-12-02T18:37:55Z,98n9czmc,serial-reaction-time,1,P,4,1,48,2314,0,4,360,134,H
2022-12-02T18:37:56Z,98n9czmc,serial-reaction-time,1,R,4,1,49,2314,0,3,415.10000014305115,343,T
2022-12-02T18:37:56Z,98n9czmc,serial-reaction-time,1,P,4,1,50,2314,0,2,400.7000000476837,432,H
2022-12-02T18:37:57Z,98n9czmc,serial-reaction-time,1,R,4,1,51,2314,0,2,341.59999990463257,322,L
2022-12-02T18:37:57Z,98n9czmc,serial-reaction-time,1,P,4,1,52,2314,0,3,357.30000019073486,223,H
2022-12-02T18:37:58Z,98n9czmc,serial-reaction-time,1,R,4,1,53,2314,0,2,374.40000009536743,232,T
2022-12-02T18:37:58Z,98n9czmc,serial-reaction-time,1,P,4,1,54,2314,0,1,403.40000009536743,321,H
2022-12-02T18:37:59Z,98n9czmc,serial-reaction-time,1,R,4,1,55,2314,0,3,354.60000014305115,213,H
2022-12-02T18:37:59Z,98n9czmc,serial-reaction-time,1,P,4,1,56,2314,0,4,293,134,H
2022-12-02T18:38:00Z,98n9czmc,serial-reaction-time,1,R,4,1,57,2314,0,2,340.40000009536743,342,L
2022-12-02T18:38:00Z,98n9czmc,serial-reaction-time,1,P,4,1,58,2314,0,2,291.39999985694885,422,H
2022-12-02T18:38:00Z,98n9czmc,serial-reaction-time,1,R,4,1,59,2314,0,4,332.40000009536743,224,L
2022-12-02T18:38:01Z,98n9czmc,serial-reaction-time,1,P,4,1,60,2314,0,3,358.89999985694885,243,H
2022-12-02T18:38:01Z,98n9czmc,serial-reaction-time,1,R,4,1,61,2314,0,4,377.7999999523163,434,T
2022-12-02T18:38:02Z,98n9czmc,serial-reaction-time,1,P,4,1,62,2314,0,1,446.2999999523163,341,H
2022-12-02T18:38:03Z,98n9czmc,serial-reaction-time,1,R,4,1,63,2314,0,3,429.90000009536743,413,L
2022-12-02T18:38:03Z,98n9czmc,serial-reaction-time,1,P,4,1,64,2314,0,4,389.30000019073486,134,H
2022-12-02T18:38:04Z,98n9czmc,serial-reaction-time,1,R,4,1,65,2314,0,1,385.40000009536743,341,H
2022-12-02T18:38:04Z,98n9czmc,serial-reaction-time,NA,P,4,1,66,2314,0,2,352.89999985694885,412,H
2022-12-02T18:38:04Z,98n9czmc,serial-reaction-time,1,P,4,0,66,2314,0,2,541.3999998569489,412,H
2022-12-02T18:38:05Z,98n9czmc,serial-reaction-time,1,R,4,1,67,2314,0,2,402.5,122,L
2022-12-02T18:38:05Z,98n9czmc,serial-reaction-time,1,P,4,1,68,2314,0,3,356.59999990463257,223,H
2022-12-02T18:38:06Z,98n9czmc,serial-reaction-time,1,R,4,1,69,2314,0,2,364,232,T
2022-12-02T18:38:06Z,98n9czmc,serial-reaction-time,1,P,4,1,70,2314,0,1,403.7999999523163,321,H
2022-12-02T18:38:07Z,98n9czmc,serial-reaction-time,1,R,4,1,71,2314,0,3,491,213,H
2022-12-02T18:38:07Z,98n9czmc,serial-reaction-time,1,P,4,1,72,2314,0,4,334.40000009536743,134,H
2022-12-02T18:38:08Z,98n9czmc,serial-reaction-time,1,R,4,1,73,2314,0,1,397.69999980926514,341,H
2022-12-02T18:38:08Z,98n9czmc,serial-reaction-time,1,P,4,1,74,2314,0,2,373.7999999523163,412,H
2022-12-02T18:38:09Z,98n9czmc,serial-reaction-time,1,R,4,1,75,2314,0,1,416.30000019073486,121,T
2022-12-02T18:38:10Z,98n9czmc,serial-reaction-time,1,P,4,1,76,2314,0,3,416.59999990463257,213,H
2022-12-02T18:38:10Z,98n9czmc,serial-reaction-time,1,R,4,1,77,2314,0,3,381.2999999523163,133,L
2022-12-02T18:38:11Z,98n9czmc,serial-reaction-time,1,P,4,1,78,2314,0,1,360,331,H
2022-12-02T18:38:11Z,98n9czmc,serial-reaction-time,1,R,4,1,79,2314,0,2,385.39999985694885,312,L
2022-12-02T18:38:12Z,98n9czmc,serial-reaction-time,1,P,4,1,80,2314,0,4,355.09999990463257,124,H
2022-12-02T18:38:17Z,98n9czmc,html-keyboard-response,NA,NA,NA,NA,NA,NA,NA,NA,NA,NA,NA
2022-12-02T18:38:18Z,98n9czmc,html-keyboard-response,NA,NA,NA,NA,NA,NA,NA,NA,NA,NA,NA
2022-12-02T18:38:19Z,98n9czmc,serial-reaction-time,1,R,5,1,1,2314,0,2,384,2,X
2022-12-02T18:38:20Z,98n9czmc,serial-reaction-time,1,P,5,1,2,2314,0,2,286,22,X
2022-12-02T18:38:20Z,98n9czmc,serial-reaction-time,1,R,5,1,3,2314,0,4,330.89999985694885,224,L
2022-12-02T18:38:21Z,98n9czmc,serial-reaction-time,1,P,5,1,4,2314,0,3,346.90000009536743,243,H
2022-12-02T18:38:21Z,98n9czmc,serial-reaction-time,1,R,5,1,5,2314,0,4,358.39999985694885,434,T
2022-12-02T18:38:22Z,98n9czmc,serial-reaction-time,1,P,5,1,6,2314,0,1,360.60000014305115,341,H
2022-12-02T18:38:22Z,98n9czmc,serial-reaction-time,1,R,5,1,7,2314,0,1,320.2000000476837,411,L
2022-12-02T18:38:23Z,98n9czmc,serial-reaction-time,1,P,5,1,8,2314,0,4,357.2000000476837,114,H
2022-12-02T18:38:23Z,98n9czmc,serial-reaction-time,1,R,5,1,9,2314,0,2,383,142,L
2022-12-02T18:38:24Z,98n9czmc,serial-reaction-time,1,P,5,1,10,2314,0,2,358.5,422,H
2022-12-02T18:38:24Z,98n9czmc,serial-reaction-time,1,R,5,1,11,2314,0,4,339.09999990463257,224,L
2022-12-02T18:38:24Z,98n9czmc,serial-reaction-time,NA,P,5,1,12,2314,0,3,273.5,243,H
2022-12-02T18:38:25Z,98n9czmc,serial-reaction-time,1,P,5,0,12,2314,0,3,648.2000000476837,243,H
2022-12-02T18:38:25Z,98n9czmc,serial-reaction-time,1,R,5,1,13,2314,0,2,319.09999990463257,432,H
2022-12-02T18:38:26Z,98n9czmc,serial-reaction-time,1,P,5,1,14,2314,0,1,368.7999999523163,321,H
2022-12-02T18:38:26Z,98n9czmc,serial-reaction-time,1,R,5,1,15,2314,0,4,381.40000009536743,214,L
2022-12-02T18:38:27Z,98n9czmc,serial-reaction-time,1,P,5,1,16,2314,0,4,353.09999990463257,144,H
2022-12-02T18:38:27Z,98n9czmc,serial-reaction-time,1,R,5,1,17,2314,0,4,396.5,444,R
2022-12-02T18:38:28Z,98n9czmc,serial-reaction-time,1,P,5,1,18,2314,0,2,373.59999990463257,442,H
2022-12-02T18:38:28Z,98n9czmc,serial-reaction-time,1,R,5,1,19,2314,0,4,352.40000009536743,424,T
2022-12-02T18:38:29Z,98n9czmc,serial-reaction-time,1,P,5,1,20,2314,0,3,382.30000019073486,243,H
2022-12-02T18:38:29Z,98n9czmc,serial-reaction-time,1,R,5,1,21,2314,0,2,391.19999980926514,432,H
2022-12-02T18:38:30Z,98n9czmc,serial-reaction-time,1,P,5,1,22,2314,0,1,325,321,H
2022-12-02T18:38:30Z,98n9czmc,serial-reaction-time,1,R,5,1,23,2314,0,3,439.7999999523163,213,H
2022-12-02T18:38:31Z,98n9czmc,serial-reaction-time,1,P,5,1,24,2314,0,4,329.2000000476837,134,H
2022-12-02T18:38:31Z,98n9czmc,serial-reaction-time,1,R,5,1,25,2314,0,2,417.60000014305115,342,L
2022-12-02T18:38:32Z,98n9czmc,serial-reaction-time,1,P,5,1,26,2314,0,2,415.60000014305115,422,H
2022-12-02T18:38:33Z,98n9czmc,serial-reaction-time,1,R,5,1,27,2314,0,2,400.7999999523163,222,R
2022-12-02T18:38:33Z,98n9czmc,serial-reaction-time,1,P,5,1,28,2314,0,3,331.39999985694885,223,H
2022-12-02T18:38:34Z,98n9czmc,serial-reaction-time,1,R,5,1,29,2314,0,2,393.89999985694885,232,T
2022-12-02T18:38:34Z,98n9czmc,serial-reaction-time,NA,P,5,1,30,2314,0,1,380.7000000476837,321,H
2022-12-02T18:38:34Z,98n9czmc,serial-reaction-time,1,P,5,0,30,2314,0,1,576.5,321,H
2022-12-02T18:38:35Z,98n9czmc,serial-reaction-time,1,R,5,1,31,2314,0,2,403,212,T
2022-12-02T18:38:35Z,98n9czmc,serial-reaction-time,1,P,5,1,32,2314,0,4,396.2999999523163,124,H
2022-12-02T18:38:36Z,98n9czmc,serial-reaction-time,1,R,5,1,33,2314,0,2,446.2000000476837,242,T
2022-12-02T18:38:36Z,98n9czmc,serial-reaction-time,1,P,5,1,34,2314,0,2,305.59999990463257,422,H
2022-12-02T18:38:37Z,98n9czmc,serial-reaction-time,1,R,5,1,35,2314,0,4,382,224,L
2022-12-02T18:38:37Z,98n9czmc,serial-reaction-time,1,P,5,1,36,2314,0,3,416.80000019073486,243,H
2022-12-02T18:38:38Z,98n9czmc,serial-reaction-time,1,R,5,1,37,2314,0,2,347.59999990463257,432,H
2022-12-02T18:38:38Z,98n9czmc,serial-reaction-time,1,P,5,1,38,2314,0,1,376.5,321,H
2022-12-02T18:38:39Z,98n9czmc,serial-reaction-time,1,R,5,1,39,2314,0,4,359.30000019073486,214,L
2022-12-02T18:38:39Z,98n9czmc,serial-reaction-time,1,P,5,1,40,2314,0,4,396.2000000476837,144,H
2022-12-02T18:38:40Z,98n9czmc,serial-reaction-time,1,R,5,1,41,2314,0,1,412.59999990463257,441,L
2022-12-02T18:38:41Z,98n9czmc,serial-reaction-time,1,P,5,1,42,2314,0,2,380.09999990463257,412,H
2022-12-02T18:38:41Z,98n9czmc,serial-reaction-time,1,R,5,1,43,2314,0,2,338.19999980926514,122,L
2022-12-02T18:38:42Z,98n9czmc,serial-reaction-time,1,P,5,1,44,2314,0,3,414.90000009536743,223,H
2022-12-02T18:38:42Z,98n9czmc,serial-reaction-time,1,R,5,1,45,2314,0,2,374.2000000476837,232,T
2022-12-02T18:38:43Z,98n9czmc,serial-reaction-time,1,P,5,1,46,2314,0,1,425,321,H
2022-12-02T18:38:43Z,98n9czmc,serial-reaction-time,1,R,5,1,47,2314,0,2,506.30000019073486,212,T
2022-12-02T18:38:44Z,98n9czmc,serial-reaction-time,1,P,5,1,48,2314,0,4,354.30000019073486,124,H
2022-12-02T18:38:44Z,98n9czmc,serial-reaction-time,1,R,5,1,49,2314,0,3,350.2000000476837,243,H
2022-12-02T18:38:45Z,98n9czmc,serial-reaction-time,1,P,5,1,50,2314,0,2,324,432,H
2022-12-02T18:38:45Z,98n9czmc,serial-reaction-time,1,R,5,1,51,2314,0,1,303.5,321,H
2022-12-02T18:38:46Z,98n9czmc,serial-reaction-time,1,P,5,1,52,2314,0,3,383.2999999523163,213,H
2022-12-02T18:38:46Z,98n9czmc,serial-reaction-time,1,R,5,1,53,2314,0,4,264,134,H
2022-12-02T18:38:47Z,98n9czmc,serial-reaction-time,NA,P,5,1,54,2314,0,1,403.90000009536743,341,H
2022-12-02T18:38:47Z,98n9czmc,serial-reaction-time,1,P,5,0,54,2314,0,1,680.0000002384186,341,H
2022-12-02T18:38:47Z,98n9czmc,serial-reaction-time,1,R,5,1,55,2314,0,4,397.5,414,T
2022-12-02T18:38:48Z,98n9czmc,serial-reaction-time,1,P,5,1,56,2314,0,4,358.40000009536743,144,H
2022-12-02T18:38:49Z,98n9czmc,serial-reaction-time,1,R,5,1,57,2314,0,3,469.2000000476837,443,L
2022-12-02T18:38:49Z,98n9czmc,serial-reaction-time,1,P,5,1,58,2314,0,2,460.10000014305115,432,H
2022-12-02T18:38:50Z,98n9czmc,serial-reaction-time,1,R,5,1,59,2314,0,3,444.69999980926514,323,T
2022-12-02T18:38:50Z,98n9czmc,serial-reaction-time,1,P,5,1,60,2314,0,3,353.90000009536743,233,H
2022-12-02T18:38:51Z,98n9czmc,serial-reaction-time,1,R,5,1,61,2314,0,4,330.09999990463257,334,L
2022-12-02T18:38:51Z,98n9czmc,serial-reaction-time,1,P,5,1,62,2314,0,1,381,341,H
2022-12-02T18:38:52Z,98n9czmc,serial-reaction-time,1,R,5,1,63,2314,0,1,266.2000000476837,411,L
2022-12-02T18:38:52Z,98n9czmc,serial-reaction-time,1,P,5,1,64,2314,0,4,320.60000014305115,114,H
2022-12-02T18:38:52Z,98n9czmc,serial-reaction-time,1,R,5,1,65,2314,0,4,316.5,144,H
2022-12-02T18:38:53Z,98n9czmc,serial-reaction-time,1,P,5,1,66,2314,0,2,400.7000000476837,442,H
2022-12-02T18:38:53Z,98n9czmc,serial-reaction-time,NA,R,5,1,67,2314,0,3,358.90000009536743,423,L
2022-12-02T18:38:54Z,98n9czmc,serial-reaction-time,1,R,5,0,67,2314,0,3,589.1000001430511,423,L
2022-12-02T18:38:54Z,98n9czmc,serial-reaction-time,1,P,5,1,68,2314,0,3,314.90000009536743,233,H
2022-12-02T18:38:55Z,98n9czmc,serial-reaction-time,1,R,5,1,69,2314,0,3,399.89999985694885,333,R
2022-12-02T18:38:55Z,98n9czmc,serial-reaction-time,1,P,5,1,70,2314,0,1,380.30000019073486,331,H
2022-12-02T18:38:56Z,98n9czmc,serial-reaction-time,1,R,5,1,71,2314,0,4,391.2999999523163,314,L
2022-12-02T18:38:56Z,98n9czmc,serial-reaction-time,1,P,5,1,72,2314,0,4,346.7000000476837,144,H
2022-12-02T18:38:57Z,98n9czmc,serial-reaction-time,1,R,5,1,73,2314,0,2,468.5,442,H
2022-12-02T18:38:57Z,98n9czmc,serial-reaction-time,1,P,5,1,74,2314,0,2,306.30000019073486,422,H
2022-12-02T18:38:58Z,98n9czmc,serial-reaction-time,1,R,5,1,75,2314,0,1,407.90000009536743,221,L
2022-12-02T18:38:58Z,98n9czmc,serial-reaction-time,1,P,5,1,76,2314,0,3,415,213,H
2022-12-02T18:38:59Z,98n9czmc,serial-reaction-time,1,R,5,1,77,2314,0,1,578.5999999046326,131,T
2022-12-02T18:39:00Z,98n9czmc,serial-reaction-time,1,P,5,1,78,2314,0,1,334.90000009536743,311,H
2022-12-02T18:39:00Z,98n9czmc,serial-reaction-time,1,R,5,1,79,2314,0,4,351.69999980926514,114,H
2022-12-02T18:39:00Z,98n9czmc,serial-reaction-time,1,P,5,1,80,2314,0,4,286.09999990463257,144,H
2022-12-02T18:39:05Z,98n9czmc,html-keyboard-response,NA,NA,NA,NA,NA,NA,NA,NA,NA,NA,NA
2022-12-02T18:39:08Z,98n9czmc,html-keyboard-response,NA,NA,NA,NA,NA,NA,NA,NA,NA,NA,NA
2022-12-02T18:39:09Z,98n9czmc,fullscreen,NA,NA,NA,NA,NA,NA,NA,NA,NA,NA,NA
2022-12-02T18:59:16Z,zy448n7y,fullscreen,NA,NA,NA,NA,NA,NA,NA,NA,NA,NA,NA
2022-12-02T19:00:36Z,zy448n7y,html-keyboard-response,NA,NA,NA,NA,NA,NA,NA,NA,NA,NA,NA
2022-12-02T19:00:38Z,zy448n7y,serial-reaction-time,1,R,1,1,1,4132,0,4,1721.300000000745,4,X
2022-12-02T19:00:39Z,zy448n7y,serial-reaction-time,1,P,1,1,2,4132,0,4,300,44,X
2022-12-02T19:00:40Z,zy448n7y,serial-reaction-time,1,R,1,1,3,4132,0,1,632.2999999970198,441,H
2022-12-02T19:00:40Z,zy448n7y,serial-reaction-time,1,P,1,1,4,4132,0,1,311.5,411,H
2022-12-02T19:00:41Z,zy448n7y,serial-reaction-time,1,R,1,1,5,4132,0,4,548,114,L
2022-12-02T19:00:41Z,zy448n7y,serial-reaction-time,NA,P,1,1,6,4132,0,3,181.69999999925497,143,H
2022-12-02T19:00:41Z,zy448n7y,serial-reaction-time,1,P,1,0,6,4132,0,3,420,143,H
2022-12-02T19:00:42Z,zy448n7y,serial-reaction-time,1,R,1,1,7,4132,0,1,504.30000000074506,431,H
2022-12-02T19:00:42Z,zy448n7y,serial-reaction-time,NA,P,1,1,8,4132,0,2,225.80000000074503,312,H
2022-12-02T19:00:43Z,zy448n7y,serial-reaction-time,1,P,1,0,8,4132,0,2,432.30000000074506,312,H
2022-12-02T19:00:43Z,zy448n7y,serial-reaction-time,1,R,1,1,9,4132,0,3,528.6999999992549,123,H
2022-12-02T19:00:44Z,zy448n7y,serial-reaction-time,1,P,1,1,10,4132,0,4,480.0999999977648,234,H
2022-12-02T19:00:45Z,zy448n7y,serial-reaction-time,1,R,1,1,11,4132,0,3,443.1000000014901,343,T
2022-12-02T19:00:45Z,zy448n7y,serial-reaction-time,1,P,1,1,12,4132,0,1,459.19999999925494,431,H
2022-12-02T19:00:46Z,zy448n7y,serial-reaction-time,1,R,1,1,13,4132,0,4,498.8999999985099,314,L
2022-12-02T19:00:46Z,zy448n7y,serial-reaction-time,1,P,1,1,14,4132,0,3,377.8999999985099,143,H
2022-12-02T19:00:47Z,zy448n7y,serial-reaction-time,1,R,1,1,15,4132,0,2,518.8000000007451,432,L
2022-12-02T19:00:47Z,zy448n7y,serial-reaction-time,1,P,1,1,16,4132,0,2,294,322,H
2022-12-02T19:00:48Z,zy448n7y,serial-reaction-time,1,R,1,1,17,4132,0,4,376.8999999985099,224,H
2022-12-02T19:00:48Z,zy448n7y,serial-reaction-time,1,P,1,1,18,4132,0,4,284.29999999701977,244,H
2022-12-02T19:00:49Z,zy448n7y,serial-reaction-time,1,R,1,1,19,4132,0,2,468.29999999701977,442,L
2022-12-02T19:00:49Z,zy448n7y,serial-reaction-time,NA,P,1,1,20,4132,0,1,230.59999999776483,421,H
2022-12-02T19:00:49Z,zy448n7y,serial-reaction-time,1,P,1,0,20,4132,0,1,453.29999999701977,421,H
2022-12-02T19:00:50Z,zy448n7y,serial-reaction-time,NA,R,1,1,21,4132,0,2,231.90000000223517,212,T
2022-12-02T19:00:50Z,zy448n7y,serial-reaction-time,1,R,1,0,21,4132,0,2,467.6000000014901,212,T
2022-12-02T19:00:50Z,zy448n7y,serial-reaction-time,NA,P,1,1,22,4132,0,3,223.19999999925497,123,H
2022-12-02T19:00:51Z,zy448n7y,serial-reaction-time,1,P,1,0,22,4132,0,3,536,123,H
2022-12-02T19:00:51Z,zy448n7y,serial-reaction-time,NA,R,1,1,23,4132,0,1,242.29999999701977,231,L
2022-12-02T19:00:51Z,zy448n7y,serial-reaction-time,1,R,1,0,23,4132,0,1,504.19999999552965,231,L
2022-12-02T19:00:52Z,zy448n7y,serial-reaction-time,1,P,1,1,24,4132,0,2,460,312,H
2022-12-02T19:00:52Z,zy448n7y,serial-reaction-time,1,R,1,1,25,4132,0,2,274.0999999977648,122,L
2022-12-02T19:00:53Z,zy448n7y,serial-reaction-time,NA,P,1,1,26,4132,0,4,440.80000000074506,224,H
2022-12-02T19:00:53Z,zy448n7y,serial-reaction-time,1,P,1,0,26,4132,0,4,566.7000000029802,224,H
2022-12-02T19:00:54Z,zy448n7y,serial-reaction-time,NA,R,1,1,27,4132,0,1,417.69999999925494,241,L
2022-12-02T19:00:54Z,zy448n7y,serial-reaction-time,1,R,1,0,27,4132,0,1,592.3999999985099,241,L
2022-12-02T19:00:54Z,zy448n7y,serial-reaction-time,1,P,1,1,28,4132,0,1,249.80000000074503,411,H
2022-12-02T19:00:55Z,zy448n7y,serial-reaction-time,1,R,1,1,29,4132,0,1,304,111,R
2022-12-02T19:00:55Z,zy448n7y,serial-reaction-time,1,P,1,1,30,4132,0,3,455.5,113,H
2022-12-02T19:00:56Z,zy448n7y,serial-reaction-time,NA,R,1,1,31,4132,0,4,215.5,134,L
2022-12-02T19:00:56Z,zy448n7y,serial-reaction-time,1,R,1,0,31,4132,0,4,427.0999999977648,134,L
2022-12-02T19:00:56Z,zy448n7y,serial-reaction-time,NA,P,1,1,32,4132,0,2,466.3999999985099,342,H
2022-12-02T19:00:57Z,zy448n7y,serial-reaction-time,1,P,1,0,32,4132,0,2,735.3999999985099,342,H
2022-12-02T19:00:57Z,zy448n7y,serial-reaction-time,1,R,1,1,33,4132,0,1,371.6000000014901,421,H
2022-12-02T19:00:58Z,zy448n7y,serial-reaction-time,NA,P,1,1,34,4132,0,4,441.80000000074506,214,H
2022-12-02T19:00:58Z,zy448n7y,serial-reaction-time,1,P,1,0,34,4132,0,4,607.4000000022352,214,H
2022-12-02T19:00:59Z,zy448n7y,serial-reaction-time,1,R,1,1,35,4132,0,2,405.19999999925494,142,L
2022-12-02T19:00:59Z,zy448n7y,serial-reaction-time,1,P,1,1,36,4132,0,1,430.69999999925494,421,H
2022-12-02T19:01:00Z,zy448n7y,serial-reaction-time,1,R,1,1,37,4132,0,1,285.29999999701977,211,L
2022-12-02T19:01:00Z,zy448n7y,serial-reaction-time,1,P,1,1,38,4132,0,3,421.0999999977648,113,H
2022-12-02T19:01:01Z,zy448n7y,serial-reaction-time,1,R,1,1,39,4132,0,4,393.3999999985099,134,L
2022-12-02T19:01:01Z,zy448n7y,serial-reaction-time,1,P,1,1,40,4132,0,2,696.3999999985099,342,H
2022-12-02T19:01:02Z,zy448n7y,serial-reaction-time,1,R,1,1,41,4132,0,1,692.5,421,H
2022-12-02T19:01:03Z,zy448n7y,serial-reaction-time,1,P,1,1,42,4132,0,4,563.5,214,H
2022-12-02T19:01:04Z,zy448n7y,serial-reaction-time,1,R,1,1,43,4132,0,2,473.69999999925494,142,L
2022-12-02T19:01:04Z,zy448n7y,serial-reaction-time,1,P,1,1,44,4132,0,1,509.30000000074506,421,H
2022-12-02T19:01:05Z,zy448n7y,serial-reaction-time,1,R,1,1,45,4132,0,1,311.9000000022352,211,L
2022-12-02T19:01:05Z,zy448n7y,serial-reaction-time,1,P,1,1,46,4132,0,3,401.4000000022352,113,H
2022-12-02T19:01:06Z,zy448n7y,serial-reaction-time,NA,R,1,1,47,4132,0,2,219.59999999776483,132,L
2022-12-02T19:01:06Z,zy448n7y,serial-reaction-time,1,R,1,0,47,4132,0,2,465.5,132,L
2022-12-02T19:01:06Z,zy448n7y,serial-reaction-time,1,P,1,1,48,4132,0,2,288,322,H
2022-12-02T19:01:07Z,zy448n7y,serial-reaction-time,1,R,1,1,49,4132,0,4,390.5,224,H
2022-12-02T19:01:07Z,zy448n7y,serial-reaction-time,1,P,1,1,50,4132,0,4,215.80000000074503,244,H
2022-12-02T19:01:08Z,zy448n7y,serial-reaction-time,1,R,1,1,51,4132,0,3,447.19999999925494,443,L
2022-12-02T19:01:08Z,zy448n7y,serial-reaction-time,NA,P,1,1,52,4132,0,1,260.19999999925494,431,H
2022-12-02T19:01:08Z,zy448n7y,serial-reaction-time,1,P,1,0,52,4132,0,1,570.3000000007451,431,H
2022-12-02T19:01:09Z,zy448n7y,serial-reaction-time,1,R,1,1,53,4132,0,1,237.89999999850988,311,L
2022-12-02T19:01:09Z,zy448n7y,serial-reaction-time,1,P,1,1,54,4132,0,3,480.69999999925494,113,H
2022-12-02T19:01:10Z,zy448n7y,serial-reaction-time,1,R,1,1,55,4132,0,4,431.0999999977648,134,L
2022-12-02T19:01:10Z,zy448n7y,serial-reaction-time,NA,P,1,1,56,4132,0,2,252.80000000074503,342,H
2022-12-02T19:01:11Z,zy448n7y,serial-reaction-time,NA,P,1,0,56,4132,0,2,506.3999999985099,342,H
2022-12-02T19:01:11Z,zy448n7y,serial-reaction-time,1,P,1,0,56,4132,0,2,832.8000000007451,342,H
2022-12-02T19:01:11Z,zy448n7y,serial-reaction-time,1,R,1,1,57,4132,0,2,278.6000000014901,422,L
2022-12-02T19:01:12Z,zy448n7y,serial-reaction-time,1,P,1,1,58,4132,0,4,400.6000000014901,224,H
2022-12-02T19:01:12Z,zy448n7y,serial-reaction-time,1,R,1,1,59,4132,0,4,233.5,244,H
2022-12-02T19:01:13Z,zy448n7y,serial-reaction-time,1,P,1,1,60,4132,0,1,505.1000000014901,441,H
2022-12-02T19:01:13Z,zy448n7y,serial-reaction-time,NA,R,1,1,61,4132,0,3,240.5,413,L
2022-12-02T19:01:14Z,zy448n7y,serial-reaction-time,1,R,1,0,61,4132,0,3,632.4000000022352,413,L
2022-12-02T19:01:14Z,zy448n7y,serial-reaction-time,1,P,1,1,62,4132,0,3,283.20000000298023,133,H
2022-12-02T19:01:15Z,zy448n7y,serial-reaction-time,1,R,1,1,63,4132,0,4,521.8000000007451,334,L
2022-12-02T19:01:15Z,zy448n7y,serial-reaction-time,NA,P,1,1,64,4132,0,2,266.0999999977648,342,H
2022-12-02T19:01:15Z,zy448n7y,serial-reaction-time,1,P,1,0,64,4132,0,2,503.3999999985099,342,H
2022-12-02T19:01:16Z,zy448n7y,serial-reaction-time,NA,R,1,1,65,4132,0,4,218.5,424,T
2022-12-02T19:01:16Z,zy448n7y,serial-reaction-time,1,R,1,0,65,4132,0,4,587.3000000007451,424,T
2022-12-02T19:01:17Z,zy448n7y,serial-reaction-time,1,P,1,1,66,4132,0,4,295.19999999925494,244,H
2022-12-02T19:01:17Z,zy448n7y,serial-reaction-time,1,R,1,1,67,4132,0,1,624,441,H
2022-12-02T19:01:18Z,zy448n7y,serial-reaction-time,1,P,1,1,68,4132,0,1,236.60000000149012,411,H
2022-12-02T19:01:19Z,zy448n7y,serial-reaction-time,1,R,1,1,69,4132,0,2,671.6999999992549,112,L
2022-12-02T19:01:19Z,zy448n7y,serial-reaction-time,NA,P,1,1,70,4132,0,3,213.5,123,H
2022-12-02T19:01:19Z,zy448n7y,serial-reaction-time,1,P,1,0,70,4132,0,3,496.80000000074506,123,H
2022-12-02T19:01:20Z,zy448n7y,serial-reaction-time,1,R,1,1,71,4132,0,3,203.59999999776483,233,L
2022-12-02T19:01:25Z,zy448n7y,serial-reaction-time,1,P,1,1,72,4132,0,2,5347,332,H
2022-12-02T19:01:26Z,zy448n7y,serial-reaction-time,1,R,1,1,73,4132,0,4,573.8999999985099,324,L
2022-12-02T19:01:26Z,zy448n7y,serial-reaction-time,1,P,1,1,74,4132,0,4,311,244,H
2022-12-02T19:01:27Z,zy448n7y,serial-reaction-time,NA,R,1,1,75,4132,0,2,470.4000000022352,442,L
2022-12-02T19:01:27Z,zy448n7y,serial-reaction-time,1,R,1,0,75,4132,0,2,828.6999999992549,442,L
2022-12-02T19:01:28Z,zy448n7y,serial-reaction-time,1,P,1,1,76,4132,0,1,413.19999999925494,421,H
2022-12-02T19:01:28Z,zy448n7y,serial-reaction-time,1,R,1,1,77,4132,0,4,478.3999999985099,214,H
2022-12-02T19:01:29Z,zy448n7y,serial-reaction-time,NA,P,1,1,78,4132,0,3,301,143,H
2022-12-02T19:01:29Z,zy448n7y,serial-reaction-time,1,P,1,0,78,4132,0,3,510.19999999925494,143,H
2022-12-02T19:01:30Z,zy448n7y,serial-reaction-time,1,R,1,1,79,4132,0,1,717.3999999985099,431,H
2022-12-02T19:01:30Z,zy448n7y,serial-reaction-time,NA,P,1,1,80,4132,0,2,218.30000000074503,312,H
2022-12-02T19:01:31Z,zy448n7y,serial-reaction-time,1,P,1,0,80,4132,0,2,489.19999999925494,312,H
2022-12-02T19:01:36Z,zy448n7y,html-keyboard-response,NA,NA,NA,NA,NA,NA,NA,NA,NA,NA,NA
2022-12-02T19:01:36Z,zy448n7y,html-keyboard-response,NA,NA,NA,NA,NA,NA,NA,NA,NA,NA,NA
2022-12-02T19:01:39Z,zy448n7y,html-keyboard-response,NA,NA,NA,NA,NA,NA,NA,NA,NA,NA,NA
2022-12-02T19:01:41Z,zy448n7y,serial-reaction-time,1,R,2,1,1,4132,0,4,395,4,X
2022-12-02T19:01:41Z,zy448n7y,serial-reaction-time,1,P,2,1,2,4132,0,4,330.9000000022352,44,X
2022-12-02T19:01:42Z,zy448n7y,serial-reaction-time,1,R,2,1,3,4132,0,2,405.6000000014901,442,L
2022-12-02T19:01:42Z,zy448n7y,serial-reaction-time,1,P,2,1,4,4132,0,1,389.1000000014901,421,H
2022-12-02T19:01:43Z,zy448n7y,serial-reaction-time,1,R,2,1,5,4132,0,1,279.1000000014901,211,L
2022-12-02T19:01:43Z,zy448n7y,serial-reaction-time,1,P,2,1,6,4132,0,3,385.9000000022352,113,H
2022-12-02T19:01:44Z,zy448n7y,serial-reaction-time,1,R,2,1,7,4132,0,1,381.8999999985099,131,T
2022-12-02T19:01:44Z,zy448n7y,serial-reaction-time,1,P,2,1,8,4132,0,2,461.8999999985099,312,H
2022-12-02T19:01:45Z,zy448n7y,serial-reaction-time,1,R,2,1,9,4132,0,4,399.5,124,L
2022-12-02T19:01:45Z,zy448n7y,serial-reaction-time,1,P,2,1,10,4132,0,4,262,244,H
2022-12-02T19:01:46Z,zy448n7y,serial-reaction-time,1,R,2,1,11,4132,0,3,437.1000000014901,443,L
2022-12-02T19:01:46Z,zy448n7y,serial-reaction-time,1,P,2,1,12,4132,0,1,403.30000000074506,431,H
2022-12-02T19:01:47Z,zy448n7y,serial-reaction-time,1,R,2,1,13,4132,0,3,368.8999999985099,313,T
2022-12-02T19:01:47Z,zy448n7y,serial-reaction-time,1,P,2,1,14,4132,0,3,275.5,133,H
2022-12-02T19:01:48Z,zy448n7y,serial-reaction-time,1,R,2,1,15,4132,0,2,412.69999999925494,332,H
2022-12-02T19:01:48Z,zy448n7y,serial-reaction-time,1,P,2,1,16,4132,0,2,226.59999999776483,322,H
2022-12-02T19:01:49Z,zy448n7y,serial-reaction-time,1,R,2,1,17,4132,0,2,314.79999999701977,222,R
2022-12-02T19:01:49Z,zy448n7y,serial-reaction-time,1,P,2,1,18,4132,0,4,336.6000000014901,224,H
2022-12-02T19:01:50Z,zy448n7y,serial-reaction-time,1,R,2,1,19,4132,0,1,402.30000000074506,241,L
2022-12-02T19:01:50Z,zy448n7y,serial-reaction-time,1,P,2,1,20,4132,0,1,232.39999999850988,411,H
2022-12-02T19:01:51Z,zy448n7y,serial-reaction-time,1,R,2,1,21,4132,0,3,348.69999999925494,113,H
2022-12-02T19:01:51Z,zy448n7y,serial-reaction-time,1,P,2,1,22,4132,0,3,185,133,H
2022-12-02T19:01:51Z,zy448n7y,serial-reaction-time,1,R,2,1,23,4132,0,2,398.5,332,H
2022-12-02T19:01:52Z,zy448n7y,serial-reaction-time,1,P,2,1,24,4132,0,2,199.70000000298023,322,H
2022-12-02T19:01:52Z,zy448n7y,serial-reaction-time,1,R,2,1,25,4132,0,2,325.1000000014901,222,R
2022-12-02T19:01:53Z,zy448n7y,serial-reaction-time,1,P,2,1,26,4132,0,4,361.0999999977648,224,H
2022-12-02T19:01:53Z,zy448n7y,serial-reaction-time,1,R,2,1,27,4132,0,3,446.5,243,L
2022-12-02T19:01:54Z,zy448n7y,serial-reaction-time,1,P,2,1,28,4132,0,1,393.80000000074506,431,H
2022-12-02T19:01:54Z,zy448n7y,serial-reaction-time,NA,R,2,1,29,4132,0,4,256.1000000014901,314,L
2022-12-02T19:01:54Z,zy448n7y,serial-reaction-time,1,R,2,0,29,4132,0,4,433.9000000022352,314,L
2022-12-02T19:01:55Z,zy448n7y,serial-reaction-time,1,P,2,1,30,4132,0,3,377.5,143,H
2022-12-02T19:01:55Z,zy448n7y,serial-reaction-time,1,R,2,1,31,4132,0,2,402.6000000014901,432,L
2022-12-02T19:01:56Z,zy448n7y,serial-reaction-time,1,P,2,1,32,4132,0,2,272,322,H
2022-12-02T19:01:56Z,zy448n7y,serial-reaction-time,1,R,2,1,33,4132,0,2,335.19999999925494,222,R
2022-12-02T19:01:57Z,zy448n7y,serial-reaction-time,1,P,2,1,34,4132,0,4,375.4000000022352,224,H
2022-12-02T19:01:58Z,zy448n7y,serial-reaction-time,1,R,2,1,35,4132,0,1,481.19999999925494,241,L
2022-12-02T19:01:58Z,zy448n7y,serial-reaction-time,1,P,2,1,36,4132,0,1,231.5,411,H
2022-12-02T19:01:58Z,zy448n7y,serial-reaction-time,1,R,2,1,37,4132,0,4,460.3999999985099,114,L
2022-12-02T19:01:59Z,zy448n7y,serial-reaction-time,NA,P,2,1,38,4132,0,3,226.40000000223517,143,H
2022-12-02T19:01:59Z,zy448n7y,serial-reaction-time,1,P,2,0,38,4132,0,3,434.19999999925494,143,H
2022-12-02T19:01:59Z,zy448n7y,serial-reaction-time,1,R,2,1,39,4132,0,3,265.19999999925494,433,L
2022-12-02T19:02:00Z,zy448n7y,serial-reaction-time,1,P,2,1,40,4132,0,2,451.1000000014901,332,H
2022-12-02T19:02:00Z,zy448n7y,serial-reaction-time,NA,R,2,1,41,4132,0,1,207.10000000149012,321,L
2022-12-02T19:02:01Z,zy448n7y,serial-reaction-time,1,R,2,0,41,4132,0,1,438.70000000298023,321,L
2022-12-02T19:02:01Z,zy448n7y,serial-reaction-time,1,P,2,1,42,4132,0,4,560,214,H
2022-12-02T19:02:02Z,zy448n7y,serial-reaction-time,1,R,2,1,43,4132,0,4,212.20000000298023,144,L
2022-12-02T19:02:02Z,zy448n7y,serial-reaction-time,NA,P,2,1,44,4132,0,1,428.5,441,H
2022-12-02T19:02:02Z,zy448n7y,serial-reaction-time,1,P,2,0,44,4132,0,1,495.5,441,H
2022-12-02T19:02:03Z,zy448n7y,serial-reaction-time,NA,R,2,1,45,4132,0,4,407.3999999985099,414,T
2022-12-02T19:02:03Z,zy448n7y,serial-reaction-time,1,R,2,0,45,4132,0,4,660.8000000007451,414,T
2022-12-02T19:02:04Z,zy448n7y,serial-reaction-time,1,P,2,1,46,4132,0,3,470.9000000022352,143,H
2022-12-02T19:02:04Z,zy448n7y,serial-reaction-time,1,R,2,1,47,4132,0,3,300,433,L
2022-12-02T19:02:05Z,zy448n7y,serial-reaction-time,1,P,2,1,48,4132,0,2,349.1000000014901,332,H
2022-12-02T19:02:05Z,zy448n7y,serial-reaction-time,1,R,2,1,49,4132,0,2,326.19999999925494,322,H
2022-12-02T19:02:06Z,zy448n7y,serial-reaction-time,1,P,2,1,50,4132,0,4,326.69999999925494,224,H
2022-12-02T19:02:06Z,zy448n7y,serial-reaction-time,1,R,2,1,51,4132,0,1,427.69999999925494,241,L
2022-12-02T19:02:07Z,zy448n7y,serial-reaction-time,1,P,2,1,52,4132,0,1,305.19999999925494,411,H
2022-12-02T19:02:07Z,zy448n7y,serial-reaction-time,NA,R,2,1,53,4132,0,2,366.69999999925494,112,L
2022-12-02T19:02:07Z,zy448n7y,serial-reaction-time,NA,R,2,0,53,4132,0,2,622,112,L
2022-12-02T19:02:07Z,zy448n7y,serial-reaction-time,1,R,2,0,53,4132,0,2,676.6999999992549,112,L
2022-12-02T19:02:08Z,zy448n7y,serial-reaction-time,NA,P,2,1,54,4132,0,3,81.79999999701977,123,H
2022-12-02T19:02:08Z,zy448n7y,serial-reaction-time,1,P,2,0,54,4132,0,3,461.0999999977648,123,H
2022-12-02T19:02:08Z,zy448n7y,serial-reaction-time,NA,R,2,1,55,4132,0,4,247.89999999850988,234,H
2022-12-02T19:02:09Z,zy448n7y,serial-reaction-time,1,R,2,0,55,4132,0,4,470.30000000074506,234,H
2022-12-02T19:02:09Z,zy448n7y,serial-reaction-time,NA,P,2,1,56,4132,0,2,509.1000000014901,342,H
2022-12-02T19:02:10Z,zy448n7y,serial-reaction-time,1,P,2,0,56,4132,0,2,938.60000000149,342,H
2022-12-02T19:02:10Z,zy448n7y,serial-reaction-time,1,R,2,1,57,4132,0,4,614.1000000014901,424,T
2022-12-02T19:02:11Z,zy448n7y,serial-reaction-time,1,P,2,1,58,4132,0,4,233.90000000223517,244,H
2022-12-02T19:02:11Z,zy448n7y,serial-reaction-time,1,R,2,1,59,4132,0,1,461.6000000014901,441,H
2022-12-02T19:02:12Z,zy448n7y,serial-reaction-time,1,P,2,1,60,4132,0,1,322.70000000298023,411,H
2022-12-02T19:02:12Z,zy448n7y,serial-reaction-time,1,R,2,1,61,4132,0,1,337,111,R
2022-12-02T19:02:13Z,zy448n7y,serial-reaction-time,1,P,2,1,62,4132,0,3,420.80000000074506,113,H
2022-12-02T19:02:13Z,zy448n7y,serial-reaction-time,1,R,2,1,63,4132,0,1,440.19999999925494,131,T
2022-12-02T19:02:14Z,zy448n7y,serial-reaction-time,NA,P,2,1,64,4132,0,2,207.29999999701977,312,H
2022-12-02T19:02:14Z,zy448n7y,serial-reaction-time,1,P,2,0,64,4132,0,2,557.3999999947846,312,H
2022-12-02T19:02:15Z,zy448n7y,serial-reaction-time,1,R,2,1,65,4132,0,1,451.0999999977648,121,T
2022-12-02T19:02:15Z,zy448n7y,serial-reaction-time,1,P,2,1,66,4132,0,4,485.1000000014901,214,H
2022-12-02T19:02:16Z,zy448n7y,serial-reaction-time,1,R,2,1,67,4132,0,1,557,141,T
2022-12-02T19:02:16Z,zy448n7y,serial-reaction-time,1,P,2,1,68,4132,0,1,238.59999999776483,411,H
2022-12-02T19:02:17Z,zy448n7y,serial-reaction-time,1,R,2,1,69,4132,0,1,351.5999999977648,111,R
2022-12-02T19:02:18Z,zy448n7y,serial-reaction-time,1,P,2,1,70,4132,0,3,424.29999999701977,113,H
2022-12-02T19:02:18Z,zy448n7y,serial-reaction-time,1,R,2,1,71,4132,0,3,277.5,133,H
2022-12-02T19:02:19Z,zy448n7y,serial-reaction-time,1,P,2,1,72,4132,0,2,526.8999999985099,332,H
2022-12-02T19:02:19Z,zy448n7y,serial-reaction-time,1,R,2,1,73,4132,0,3,482.70000000298023,323,T
2022-12-02T19:02:20Z,zy448n7y,serial-reaction-time,1,P,2,1,74,4132,0,4,440.9000000022352,234,H
2022-12-02T19:02:21Z,zy448n7y,serial-reaction-time,1,R,2,1,75,4132,0,3,650.6000000014901,343,T
2022-12-02T19:02:21Z,zy448n7y,serial-reaction-time,1,P,2,1,76,4132,0,1,435.1000000014901,431,H
2022-12-02T19:02:22Z,zy448n7y,serial-reaction-time,NA,R,2,1,77,4132,0,2,345.80000000074506,312,H
2022-12-02T19:02:22Z,zy448n7y,serial-reaction-time,1,R,2,0,77,4132,0,2,653.0999999977648,312,H
2022-12-02T19:02:23Z,zy448n7y,serial-reaction-time,1,P,2,1,78,4132,0,3,500.19999999925494,123,H
2022-12-02T19:02:23Z,zy448n7y,serial-reaction-time,1,R,2,1,79,4132,0,4,577.4000000022352,234,H
2022-12-02T19:02:24Z,zy448n7y,serial-reaction-time,1,P,2,1,80,4132,0,2,607.8000000007451,342,H
2022-12-02T19:02:29Z,zy448n7y,html-keyboard-response,NA,NA,NA,NA,NA,NA,NA,NA,NA,NA,NA
2022-12-02T19:02:30Z,zy448n7y,html-keyboard-response,NA,NA,NA,NA,NA,NA,NA,NA,NA,NA,NA
2022-12-02T19:02:32Z,zy448n7y,serial-reaction-time,1,R,3,1,1,4132,0,4,341.8999999985099,4,X
2022-12-02T19:02:32Z,zy448n7y,serial-reaction-time,1,P,3,1,2,4132,0,4,211.09999999776483,44,X
2022-12-02T19:02:32Z,zy448n7y,serial-reaction-time,1,R,3,1,3,4132,0,4,293.5999999977648,444,R
2022-12-02T19:02:33Z,zy448n7y,serial-reaction-time,1,P,3,1,4,4132,0,1,535.1999999992549,441,H
2022-12-02T19:02:33Z,zy448n7y,serial-reaction-time,1,R,3,1,5,4132,0,1,219,411,H
2022-12-02T19:02:34Z,zy448n7y,serial-reaction-time,1,P,3,1,6,4132,0,3,412.19999999925494,113,H
2022-12-02T19:02:34Z,zy448n7y,serial-reaction-time,NA,R,3,1,7,4132,0,1,180.89999999850988,131,T
2022-12-02T19:02:35Z,zy448n7y,serial-reaction-time,NA,R,3,0,7,4132,0,1,493.69999999925494,131,T
2022-12-02T19:02:35Z,zy448n7y,serial-reaction-time,1,R,3,0,7,4132,0,1,960.4000000022352,131,T
2022-12-02T19:02:36Z,zy448n7y,serial-reaction-time,1,P,3,1,8,4132,0,2,449.19999999925494,312,H
2022-12-02T19:02:36Z,zy448n7y,serial-reaction-time,1,R,3,1,9,4132,0,3,484.5999999977648,123,H
2022-12-02T19:02:37Z,zy448n7y,serial-reaction-time,NA,P,3,1,10,4132,0,4,203,234,H
2022-12-02T19:02:37Z,zy448n7y,serial-reaction-time,1,P,3,0,10,4132,0,4,432.79999999701977,234,H
2022-12-02T19:02:37Z,zy448n7y,serial-reaction-time,1,R,3,1,11,4132,0,2,463.3999999985099,342,H
2022-12-02T19:02:38Z,zy448n7y,serial-reaction-time,NA,P,3,1,12,4132,0,1,257.80000000074506,421,H
2022-12-02T19:02:38Z,zy448n7y,serial-reaction-time,1,P,3,0,12,4132,0,1,512.8000000007451,421,H
2022-12-02T19:02:39Z,zy448n7y,serial-reaction-time,1,R,3,1,13,4132,0,4,662.8000000007451,214,H
2022-12-02T19:02:39Z,zy448n7y,serial-reaction-time,1,P,3,1,14,4132,0,3,408.1000000014901,143,H
2022-12-02T19:02:40Z,zy448n7y,serial-reaction-time,1,R,3,1,15,4132,0,1,746,431,H
2022-12-02T19:02:41Z,zy448n7y,serial-reaction-time,1,P,3,1,16,4132,0,2,421.6000000014901,312,H
2022-12-02T19:02:41Z,zy448n7y,serial-reaction-time,1,R,3,1,17,4132,0,1,392.1000000014901,121,T
2022-12-02T19:02:42Z,zy448n7y,serial-reaction-time,1,P,3,1,18,4132,0,4,647.8999999985099,214,H
2022-12-02T19:02:43Z,zy448n7y,serial-reaction-time,1,R,3,1,19,4132,0,3,428.3999999985099,143,H
2022-12-02T19:02:44Z,zy448n7y,serial-reaction-time,NA,P,3,1,20,4132,0,1,661,431,H
2022-12-02T19:02:44Z,zy448n7y,serial-reaction-time,1,P,3,0,20,4132,0,1,942.5,431,H
2022-12-02T19:02:44Z,zy448n7y,serial-reaction-time,1,R,3,1,21,4132,0,1,327.19999999925494,311,L
2022-12-02T19:02:45Z,zy448n7y,serial-reaction-time,1,P,3,1,22,4132,0,3,544.1000000014901,113,H
2022-12-02T19:02:45Z,zy448n7y,serial-reaction-time,1,R,3,1,23,4132,0,3,308,133,H
2022-12-02T19:02:46Z,zy448n7y,serial-reaction-time,1,P,3,1,24,4132,0,2,455.69999999925494,332,H
2022-12-02T19:02:47Z,zy448n7y,serial-reaction-time,1,R,3,1,25,4132,0,3,510.6000000014901,323,T
2022-12-02T19:02:47Z,zy448n7y,serial-reaction-time,1,P,3,1,26,4132,0,4,451.30000000074506,234,H
2022-12-02T19:02:48Z,zy448n7y,serial-reaction-time,1,R,3,1,27,4132,0,4,243.59999999776483,344,L
2022-12-02T19:02:48Z,zy448n7y,serial-reaction-time,1,P,3,1,28,4132,0,1,401.1000000014901,441,H
2022-12-02T19:02:49Z,zy448n7y,serial-reaction-time,1,R,3,1,29,4132,0,3,436.5,413,L
2022-12-02T19:02:49Z,zy448n7y,serial-reaction-time,1,P,3,1,30,4132,0,3,220.60000000149012,133,H
2022-12-02T19:02:50Z,zy448n7y,serial-reaction-time,1,R,3,1,31,4132,0,4,874.3000000007451,334,L
2022-12-02T19:02:51Z,zy448n7y,serial-reaction-time,1,P,3,1,32,4132,0,2,526.5,342,H
2022-12-02T19:02:51Z,zy448n7y,serial-reaction-time,NA,R,3,1,33,4132,0,4,500,424,T
2022-12-02T19:02:52Z,zy448n7y,serial-reaction-time,NA,R,3,0,33,4132,0,4,900.3000000007451,424,T
