datetime,id,trial_type,correct,p_or_r,block,first_response,trial_number,sequence,is_practice,correct_pos,cumulative_rt,actual_triplet,triplet_type
2023-04-11T22:53:56Z,qh2z8vvu,fullscreen,NA,NA,NA,NA,NA,NA,NA,NA,NA,NA,NA
2023-04-11T22:53:57Z,qh2z8vvu,html-keyboard-response,NA,NA,NA,NA,NA,NA,NA,NA,NA,NA,NA
2023-04-11T22:53:59Z,qh2z8vvu,serial-reaction-time,1,R,1,1,1,2314,0,3,389.39999997615814,3,X
2023-04-11T22:53:59Z,qh2z8vvu,serial-reaction-time,1,P,1,1,2,2314,0,2,318.39999997615814,32,X
2023-04-11T22:53:59Z,qh2z8vvu,serial-reaction-time,NA,R,1,1,3,2314,0,3,176.5999999642372,323,T
2023-04-11T22:54:00Z,qh2z8vvu,serial-reaction-time,1,R,1,0,3,2314,0,3,354.7999999523163,323,T
2023-04-11T22:54:00Z,qh2z8vvu,serial-reaction-time,1,P,1,1,4,2314,0,3,348.80000001192093,233,H
2023-04-11T22:54:01Z,qh2z8vvu,serial-reaction-time,1,R,1,1,5,2314,0,4,434.4000000357628,334,L
2023-04-11T22:54:01Z,qh2z8vvu,serial-reaction-time,1,P,1,1,6,2314,0,1,361.0999999642372,341,H
2023-04-11T22:54:02Z,qh2z8vvu,serial-reaction-time,1,R,1,1,7,2314,0,3,412.800000011921,413,L
2023-04-11T22:54:02Z,qh2z8vvu,serial-reaction-time,1,P,1,1,8,2314,0,4,453.4000000357628,134,H
2023-04-11T22:54:03Z,qh2z8vvu,serial-reaction-time,1,R,1,1,9,2314,0,2,378.800000011921,342,L
2023-04-11T22:54:03Z,qh2z8vvu,serial-reaction-time,1,P,1,1,10,2314,0,2,328.30000001192093,422,H
2023-04-11T22:54:04Z,qh2z8vvu,serial-reaction-time,1,R,1,1,11,2314,0,2,305.19999998807907,222,R
2023-04-11T22:54:04Z,qh2z8vvu,serial-reaction-time,1,P,1,1,12,2314,0,3,373.5,223,H
2023-04-11T22:54:05Z,qh2z8vvu,serial-reaction-time,1,R,1,1,13,2314,0,4,349.5,234,L
2023-04-11T22:54:05Z,qh2z8vvu,serial-reaction-time,NA,P,1,1,14,2314,0,1,279.4000000357628,341,H
2023-04-11T22:54:05Z,qh2z8vvu,serial-reaction-time,1,P,1,0,14,2314,0,1,557.9000000357628,341,H
2023-04-11T22:54:06Z,qh2z8vvu,serial-reaction-time,1,R,1,1,15,2314,0,2,432.7000000476837,412,H
2023-04-11T22:54:06Z,qh2z8vvu,serial-reaction-time,1,P,1,1,16,2314,0,4,425.5,124,H
2023-04-11T22:54:07Z,qh2z8vvu,serial-reaction-time,1,R,1,1,17,2314,0,1,353.30000001192093,241,L
2023-04-11T22:54:07Z,qh2z8vvu,serial-reaction-time,1,P,1,1,18,2314,0,2,394.9000000357628,412,H
2023-04-11T22:54:08Z,qh2z8vvu,serial-reaction-time,1,R,1,1,19,2314,0,1,511.300000011921,121,T
2023-04-11T22:54:09Z,qh2z8vvu,serial-reaction-time,1,P,1,1,20,2314,0,3,406.89999997615814,213,H
2023-04-11T22:54:09Z,qh2z8vvu,serial-reaction-time,1,R,1,1,21,2314,0,2,372.5,132,L
2023-04-11T22:54:10Z,qh2z8vvu,serial-reaction-time,1,P,1,1,22,2314,0,1,368.0999999642372,321,H
2023-04-11T22:54:10Z,qh2z8vvu,serial-reaction-time,1,R,1,1,23,2314,0,4,407.800000011921,214,L
2023-04-11T22:54:11Z,qh2z8vvu,serial-reaction-time,1,P,1,1,24,2314,0,4,408.699999988079,144,H
2023-04-11T22:54:11Z,qh2z8vvu,serial-reaction-time,1,R,1,1,25,2314,0,4,390.10000002384186,444,R
2023-04-11T22:54:12Z,qh2z8vvu,serial-reaction-time,1,P,1,1,26,2314,0,2,363.5,442,H
2023-04-11T22:54:12Z,qh2z8vvu,serial-reaction-time,1,R,1,1,27,2314,0,3,418,423,L
2023-04-11T22:54:13Z,qh2z8vvu,serial-reaction-time,1,P,1,1,28,2314,0,3,378,233,H
2023-04-11T22:54:13Z,qh2z8vvu,serial-reaction-time,1,R,1,1,29,2314,0,3,344.0999999642372,333,R
2023-04-11T22:54:14Z,qh2z8vvu,serial-reaction-time,NA,P,1,1,30,2314,0,1,394.89999997615814,331,H
2023-04-11T22:54:14Z,qh2z8vvu,serial-reaction-time,1,P,1,0,30,2314,0,1,466.99999994039536,331,H
2023-04-11T22:54:14Z,qh2z8vvu,serial-reaction-time,1,R,1,1,31,2314,0,1,340.5,311,H
2023-04-11T22:54:15Z,qh2z8vvu,serial-reaction-time,1,P,1,1,32,2314,0,4,390.60000002384186,114,H
2023-04-11T22:54:15Z,qh2z8vvu,serial-reaction-time,1,R,1,1,33,2314,0,1,344.10000002384186,141,T
2023-04-11T22:54:16Z,qh2z8vvu,serial-reaction-time,1,P,1,1,34,2314,0,2,446,412,H
2023-04-11T22:54:16Z,qh2z8vvu,serial-reaction-time,1,R,1,1,35,2314,0,2,381.800000011921,122,L
2023-04-11T22:54:17Z,qh2z8vvu,serial-reaction-time,1,P,1,1,36,2314,0,3,431.300000011921,223,H
2023-04-11T22:54:18Z,qh2z8vvu,serial-reaction-time,1,R,1,1,37,2314,0,3,325.30000001192093,233,H
2023-04-11T22:54:18Z,qh2z8vvu,serial-reaction-time,1,P,1,1,38,2314,0,1,311.80000001192093,331,H
2023-04-11T22:54:18Z,qh2z8vvu,serial-reaction-time,NA,R,1,1,39,2314,0,4,385.699999988079,314,L
2023-04-11T22:54:19Z,qh2z8vvu,serial-reaction-time,1,R,1,0,39,2314,0,4,648.3000000119209,314,L
2023-04-11T22:54:19Z,qh2z8vvu,serial-reaction-time,1,P,1,1,40,2314,0,4,396.5,144,H
2023-04-11T22:54:20Z,qh2z8vvu,serial-reaction-time,1,R,1,1,41,2314,0,3,456.699999988079,443,L
2023-04-11T22:54:20Z,qh2z8vvu,serial-reaction-time,1,P,1,1,42,2314,0,2,353.60000002384186,432,H
2023-04-11T22:54:21Z,qh2z8vvu,serial-reaction-time,1,R,1,1,43,2314,0,3,445.800000011921,323,T
2023-04-11T22:54:21Z,qh2z8vvu,serial-reaction-time,1,P,1,1,44,2314,0,3,360.699999988079,233,H
2023-04-11T22:54:22Z,qh2z8vvu,serial-reaction-time,1,R,1,1,45,2314,0,1,388.699999988079,331,H
2023-04-11T22:54:22Z,qh2z8vvu,serial-reaction-time,1,P,1,1,46,2314,0,1,345.7999999523163,311,H
2023-04-11T22:54:23Z,qh2z8vvu,serial-reaction-time,1,R,1,1,47,2314,0,3,417.800000011921,113,L
2023-04-11T22:54:23Z,qh2z8vvu,serial-reaction-time,1,P,1,1,48,2314,0,4,427.10000002384186,134,H
2023-04-11T22:54:24Z,qh2z8vvu,serial-reaction-time,1,R,1,1,49,2314,0,1,491.39999997615814,341,H
2023-04-11T22:54:25Z,qh2z8vvu,serial-reaction-time,1,P,1,1,50,2314,0,2,323.7000000476837,412,H
2023-04-11T22:54:25Z,qh2z8vvu,serial-reaction-time,1,R,1,1,51,2314,0,4,394.5,124,H
2023-04-11T22:54:26Z,qh2z8vvu,serial-reaction-time,1,P,1,1,52,2314,0,3,417.39999997615814,243,H
2023-04-11T22:54:26Z,qh2z8vvu,serial-reaction-time,1,R,1,1,53,2314,0,2,498.800000011921,432,H
2023-04-11T22:54:27Z,qh2z8vvu,serial-reaction-time,1,P,1,1,54,2314,0,1,329.30000001192093,321,H
2023-04-11T22:54:27Z,qh2z8vvu,serial-reaction-time,NA,R,1,1,55,2314,0,2,396.699999988079,212,T
2023-04-11T22:54:28Z,qh2z8vvu,serial-reaction-time,1,R,1,0,55,2314,0,2,695.7999999523163,212,T
2023-04-11T22:54:28Z,qh2z8vvu,serial-reaction-time,1,P,1,1,56,2314,0,4,463.0999999642372,124,H
2023-04-11T22:54:29Z,qh2z8vvu,serial-reaction-time,1,R,1,1,57,2314,0,3,717.5,243,H
2023-04-11T22:54:29Z,qh2z8vvu,serial-reaction-time,1,P,1,1,58,2314,0,2,348,432,H
2023-04-11T22:54:30Z,qh2z8vvu,serial-reaction-time,1,R,1,1,59,2314,0,4,418.89999997615814,324,L
2023-04-11T22:54:30Z,qh2z8vvu,serial-reaction-time,1,P,1,1,60,2314,0,3,360.5,243,H
2023-04-11T22:54:31Z,qh2z8vvu,serial-reaction-time,1,R,1,1,61,2314,0,1,466.4000000357628,431,L
2023-04-11T22:54:31Z,qh2z8vvu,serial-reaction-time,1,P,1,1,62,2314,0,1,297.80000001192093,311,H
2023-04-11T22:54:32Z,qh2z8vvu,serial-reaction-time,1,R,1,1,63,2314,0,3,358.39999997615814,113,L
2023-04-11T22:54:32Z,qh2z8vvu,serial-reaction-time,1,P,1,1,64,2314,0,4,377.5999999642372,134,H
2023-04-11T22:54:33Z,qh2z8vvu,serial-reaction-time,1,R,1,1,65,2314,0,2,416.0999999642372,342,L
2023-04-11T22:54:33Z,qh2z8vvu,serial-reaction-time,1,P,1,1,66,2314,0,2,345.7000000476837,422,H
2023-04-11T22:54:34Z,qh2z8vvu,serial-reaction-time,1,R,1,1,67,2314,0,1,353.30000001192093,221,L
2023-04-11T22:54:34Z,qh2z8vvu,serial-reaction-time,1,P,1,1,68,2314,0,3,376.199999988079,213,H
2023-04-11T22:54:35Z,qh2z8vvu,serial-reaction-time,1,R,1,1,69,2314,0,4,359.0999999642372,134,H
2023-04-11T22:54:35Z,qh2z8vvu,serial-reaction-time,1,P,1,1,70,2314,0,1,387.5,341,H
2023-04-11T22:54:36Z,qh2z8vvu,serial-reaction-time,1,R,1,1,71,2314,0,2,406.300000011921,412,H
2023-04-11T22:54:37Z,qh2z8vvu,serial-reaction-time,NA,P,1,1,72,2314,0,4,440.10000002384186,124,H
2023-04-11T22:54:37Z,qh2z8vvu,serial-reaction-time,1,P,1,0,72,2314,0,4,592.0000000596046,124,H
2023-04-11T22:54:37Z,qh2z8vvu,serial-reaction-time,1,R,1,1,73,2314,0,2,406.5,242,T
2023-04-11T22:54:38Z,qh2z8vvu,serial-reaction-time,1,P,1,1,74,2314,0,2,298.9000000357628,422,H
2023-04-11T22:54:38Z,qh2z8vvu,serial-reaction-time,1,R,1,1,75,2314,0,2,326.30000001192093,222,R
2023-04-11T22:54:39Z,qh2z8vvu,serial-reaction-time,1,P,1,1,76,2314,0,3,493.0999999642372,223,H
2023-04-11T22:54:39Z,qh2z8vvu,serial-reaction-time,1,R,1,1,77,2314,0,4,448.9000000357628,234,L
2023-04-11T22:54:40Z,qh2z8vvu,serial-reaction-time,1,P,1,1,78,2314,0,1,320.5999999642372,341,H
2023-04-11T22:54:40Z,qh2z8vvu,serial-reaction-time,1,R,1,1,79,2314,0,3,338,413,L
2023-04-11T22:54:41Z,qh2z8vvu,serial-reaction-time,1,P,1,1,80,2314,0,4,424.2999999523163,134,H
2023-04-11T22:54:46Z,qh2z8vvu,html-keyboard-response,NA,NA,NA,NA,NA,NA,NA,NA,NA,NA,NA
2023-04-11T22:54:47Z,qh2z8vvu,html-keyboard-response,NA,NA,NA,NA,NA,NA,NA,NA,NA,NA,NA
2023-04-11T22:54:48Z,qh2z8vvu,serial-reaction-time,1,R,2,1,1,2314,0,2,365,2,X
2023-04-11T22:54:48Z,qh2z8vvu,serial-reaction-time,1,P,2,1,2,2314,0,2,278.39999997615814,22,X
2023-04-11T22:54:49Z,qh2z8vvu,serial-reaction-time,1,R,2,1,3,2314,0,1,295.39999997615814,221,L
2023-04-11T22:54:49Z,qh2z8vvu,serial-reaction-time,1,P,2,1,4,2314,0,3,374.9000000357628,213,H
2023-04-11T22:54:50Z,qh2z8vvu,serial-reaction-time,1,R,2,1,5,2314,0,3,357.80000001192093,133,L
2023-04-11T22:54:50Z,qh2z8vvu,serial-reaction-time,1,P,2,1,6,2314,0,1,317.9000000357628,331,H
2023-04-11T22:54:51Z,qh2z8vvu,serial-reaction-time,1,R,2,1,7,2314,0,3,325,313,T
2023-04-11T22:54:51Z,qh2z8vvu,serial-reaction-time,1,P,2,1,8,2314,0,4,352.9000000357628,134,H
2023-04-11T22:54:52Z,qh2z8vvu,serial-reaction-time,1,R,2,1,9,2314,0,2,322.7000000476837,342,L
2023-04-11T22:54:52Z,qh2z8vvu,serial-reaction-time,1,P,2,1,10,2314,0,2,354.69999998807907,422,H
2023-04-11T22:54:53Z,qh2z8vvu,serial-reaction-time,1,R,2,1,11,2314,0,3,463.5,223,H
2023-04-11T22:54:53Z,qh2z8vvu,serial-reaction-time,1,P,2,1,12,2314,0,3,343.80000001192093,233,H
2023-04-11T22:54:54Z,qh2z8vvu,serial-reaction-time,1,R,2,1,13,2314,0,4,404.2000000476837,334,L
2023-04-11T22:54:54Z,qh2z8vvu,serial-reaction-time,NA,P,2,1,14,2314,0,1,361.699999988079,341,H
2023-04-11T22:54:54Z,qh2z8vvu,serial-reaction-time,1,P,2,0,14,2314,0,1,680.3999999761581,341,H
2023-04-11T22:54:55Z,qh2z8vvu,serial-reaction-time,1,R,2,1,15,2314,0,3,389.4000000357628,413,L
2023-04-11T22:54:55Z,qh2z8vvu,serial-reaction-time,1,P,2,1,16,2314,0,4,374,134,H
2023-04-11T22:54:56Z,qh2z8vvu,serial-reaction-time,NA,R,2,1,17,2314,0,3,399.5999999642372,343,T
2023-04-11T22:54:56Z,qh2z8vvu,serial-reaction-time,1,R,2,0,17,2314,0,3,706.9999999403954,343,T
2023-04-11T22:54:57Z,qh2z8vvu,serial-reaction-time,1,P,2,1,18,2314,0,2,393.699999988079,432,H
2023-04-11T22:54:57Z,qh2z8vvu,serial-reaction-time,1,R,2,1,19,2314,0,3,375.800000011921,323,T
2023-04-11T22:54:58Z,qh2z8vvu,serial-reaction-time,1,P,2,1,20,2314,0,3,361.699999988079,233,H
2023-04-11T22:54:58Z,qh2z8vvu,serial-reaction-time,1,R,2,1,21,2314,0,1,441.89999997615814,331,H
2023-04-11T22:54:59Z,qh2z8vvu,serial-reaction-time,1,P,2,1,22,2314,0,1,294.69999998807907,311,H
2023-04-11T22:54:59Z,qh2z8vvu,serial-reaction-time,1,R,2,1,23,2314,0,3,298.5,113,L
2023-04-11T22:55:00Z,qh2z8vvu,serial-reaction-time,1,P,2,1,24,2314,0,4,375.199999988079,134,H
2023-04-11T22:55:01Z,qh2z8vvu,serial-reaction-time,1,R,2,1,25,2314,0,4,849.3999999761581,344,L
2023-04-11T22:55:01Z,qh2z8vvu,serial-reaction-time,1,P,2,1,26,2314,0,2,359.39999997615814,442,H
2023-04-11T22:55:02Z,qh2z8vvu,serial-reaction-time,1,R,2,1,27,2314,0,1,394.89999997615814,421,L
2023-04-11T22:55:02Z,qh2z8vvu,serial-reaction-time,1,P,2,1,28,2314,0,3,325.89999997615814,213,H
2023-04-11T22:55:03Z,qh2z8vvu,serial-reaction-time,1,R,2,1,29,2314,0,3,449.10000002384186,133,L
2023-04-11T22:55:03Z,qh2z8vvu,serial-reaction-time,1,P,2,1,30,2314,0,1,390.4000000357628,331,H
2023-04-11T22:55:04Z,qh2z8vvu,serial-reaction-time,1,R,2,1,31,2314,0,4,333.19999998807907,314,L
2023-04-11T22:55:04Z,qh2z8vvu,serial-reaction-time,1,P,2,1,32,2314,0,4,447.800000011921,144,H
2023-04-11T22:55:05Z,qh2z8vvu,serial-reaction-time,1,R,2,1,33,2314,0,3,387,443,L
2023-04-11T22:55:05Z,qh2z8vvu,serial-reaction-time,1,P,2,1,34,2314,0,2,396.800000011921,432,H
2023-04-11T22:55:06Z,qh2z8vvu,serial-reaction-time,1,R,2,1,35,2314,0,3,434.800000011921,323,T
2023-04-11T22:55:06Z,qh2z8vvu,serial-reaction-time,1,P,2,1,36,2314,0,3,359.4000000357628,233,H
2023-04-11T22:55:07Z,qh2z8vvu,serial-reaction-time,1,R,2,1,37,2314,0,3,376.4000000357628,333,R
2023-04-11T22:55:07Z,qh2z8vvu,serial-reaction-time,1,P,2,1,38,2314,0,1,524.5,331,H
2023-04-11T22:55:08Z,qh2z8vvu,serial-reaction-time,1,R,2,1,39,2314,0,4,413.7000000476837,314,L
2023-04-11T22:55:09Z,qh2z8vvu,serial-reaction-time,1,P,2,1,40,2314,0,4,390.7999999523163,144,H
2023-04-11T22:55:09Z,qh2z8vvu,serial-reaction-time,NA,R,2,1,41,2314,0,3,378.39999997615814,443,L
2023-04-11T22:55:09Z,qh2z8vvu,serial-reaction-time,1,R,2,0,41,2314,0,3,590.0999999642372,443,L
2023-04-11T22:55:10Z,qh2z8vvu,serial-reaction-time,1,P,2,1,42,2314,0,2,461.0999999642372,432,H
2023-04-11T22:55:10Z,qh2z8vvu,serial-reaction-time,1,R,2,1,43,2314,0,3,410.300000011921,323,T
2023-04-11T22:55:11Z,qh2z8vvu,serial-reaction-time,1,P,2,1,44,2314,0,3,382.199999988079,233,H
2023-04-11T22:55:11Z,qh2z8vvu,serial-reaction-time,1,R,2,1,45,2314,0,2,386.7000000476837,332,L
2023-04-11T22:55:12Z,qh2z8vvu,serial-reaction-time,1,P,2,1,46,2314,0,1,308.89999997615814,321,H
2023-04-11T22:55:12Z,qh2z8vvu,serial-reaction-time,1,R,2,1,47,2314,0,2,478.39999997615814,212,T
2023-04-11T22:55:13Z,qh2z8vvu,serial-reaction-time,1,P,2,1,48,2314,0,4,424.39999997615814,124,H
2023-04-11T22:55:14Z,qh2z8vvu,serial-reaction-time,1,R,2,1,49,2314,0,4,411.60000002384186,244,L
2023-04-11T22:55:14Z,qh2z8vvu,serial-reaction-time,1,P,2,1,50,2314,0,2,335.4000000357628,442,H
2023-04-11T22:55:15Z,qh2z8vvu,serial-reaction-time,1,R,2,1,51,2314,0,1,442,421,L
2023-04-11T22:55:15Z,qh2z8vvu,serial-reaction-time,1,P,2,1,52,2314,0,3,356,213,H
2023-04-11T22:55:16Z,qh2z8vvu,serial-reaction-time,1,R,2,1,53,2314,0,1,399.199999988079,131,T
2023-04-11T22:55:16Z,qh2z8vvu,serial-reaction-time,1,P,2,1,54,2314,0,1,392.60000002384186,311,H
2023-04-11T22:55:17Z,qh2z8vvu,serial-reaction-time,1,R,2,1,55,2314,0,4,457.39999997615814,114,H
2023-04-11T22:55:17Z,qh2z8vvu,serial-reaction-time,1,P,2,1,56,2314,0,4,309.69999998807907,144,H
2023-04-11T22:55:18Z,qh2z8vvu,serial-reaction-time,1,R,2,1,57,2314,0,2,361.60000002384186,442,H
2023-04-11T22:55:18Z,qh2z8vvu,serial-reaction-time,1,P,2,1,58,2314,0,2,410.199999988079,422,H
2023-04-11T22:55:19Z,qh2z8vvu,serial-reaction-time,1,R,2,1,59,2314,0,2,379.89999997615814,222,R
2023-04-11T22:55:19Z,qh2z8vvu,serial-reaction-time,1,P,2,1,60,2314,0,3,429.5999999642372,223,H
2023-04-11T22:55:20Z,qh2z8vvu,serial-reaction-time,NA,R,2,1,61,2314,0,1,349.30000001192093,231,L
2023-04-11T22:55:20Z,qh2z8vvu,serial-reaction-time,1,R,2,0,61,2314,0,1,507.60000002384186,231,L
2023-04-11T22:55:20Z,qh2z8vvu,serial-reaction-time,1,P,2,1,62,2314,0,1,340,311,H
2023-04-11T22:55:21Z,qh2z8vvu,serial-reaction-time,1,R,2,1,63,2314,0,4,401.9000000357628,114,H
2023-04-11T22:55:21Z,qh2z8vvu,serial-reaction-time,1,P,2,1,64,2314,0,4,316.5999999642372,144,H
2023-04-11T22:55:22Z,qh2z8vvu,serial-reaction-time,1,R,2,1,65,2314,0,4,347.5,444,R
2023-04-11T22:55:22Z,qh2z8vvu,serial-reaction-time,1,P,2,1,66,2314,0,2,348.39999997615814,442,H
2023-04-11T22:55:23Z,qh2z8vvu,serial-reaction-time,1,R,2,1,67,2314,0,1,370.60000002384186,421,L
2023-04-11T22:55:23Z,qh2z8vvu,serial-reaction-time,1,P,2,1,68,2314,0,3,350.0999999642372,213,H
2023-04-11T22:55:24Z,qh2z8vvu,serial-reaction-time,1,R,2,1,69,2314,0,4,491.60000002384186,134,H
2023-04-11T22:55:24Z,qh2z8vvu,serial-reaction-time,1,P,2,1,70,2314,0,1,421.0999999642372,341,H
2023-04-11T22:55:25Z,qh2z8vvu,serial-reaction-time,1,R,2,1,71,2314,0,3,481.9000000357628,413,L
2023-04-11T22:55:25Z,qh2z8vvu,serial-reaction-time,1,P,2,1,72,2314,0,4,442.699999988079,134,H
2023-04-11T22:55:26Z,qh2z8vvu,serial-reaction-time,1,R,2,1,73,2314,0,4,436.199999988079,344,L
2023-04-11T22:55:27Z,qh2z8vvu,serial-reaction-time,1,P,2,1,74,2314,0,2,493.39999997615814,442,H
2023-04-11T22:55:27Z,qh2z8vvu,serial-reaction-time,1,R,2,1,75,2314,0,1,427,421,L
2023-04-11T22:55:28Z,qh2z8vvu,serial-reaction-time,1,P,2,1,76,2314,0,3,528.6999999880791,213,H
2023-04-11T22:55:29Z,qh2z8vvu,serial-reaction-time,1,R,2,1,77,2314,0,1,551.5,131,T
2023-04-11T22:55:29Z,qh2z8vvu,serial-reaction-time,1,P,2,1,78,2314,0,1,348.60000002384186,311,H
2023-04-11T22:55:30Z,qh2z8vvu,serial-reaction-time,1,R,2,1,79,2314,0,1,368,111,R
2023-04-11T22:55:31Z,qh2z8vvu,serial-reaction-time,NA,P,2,1,80,2314,0,4,930.100000023842,114,H
2023-04-11T22:55:31Z,qh2z8vvu,serial-reaction-time,1,P,2,0,80,2314,0,4,1181.600000023842,114,H
2023-04-11T22:55:36Z,qh2z8vvu,html-keyboard-response,NA,NA,NA,NA,NA,NA,NA,NA,NA,NA,NA
2023-04-11T22:55:37Z,qh2z8vvu,html-keyboard-response,NA,NA,NA,NA,NA,NA,NA,NA,NA,NA,NA
2023-04-11T22:55:38Z,qh2z8vvu,serial-reaction-time,1,R,3,1,1,2314,0,4,634.8999999761581,4,X
2023-04-11T22:55:39Z,qh2z8vvu,serial-reaction-time,1,P,3,1,2,2314,0,2,716.5999999642372,42,X
2023-04-11T22:55:39Z,qh2z8vvu,serial-reaction-time,1,R,3,1,3,2314,0,2,265.4000000357628,422,H
2023-04-11T22:55:40Z,qh2z8vvu,serial-reaction-time,1,P,3,1,4,2314,0,3,527.3999999761581,223,H
2023-04-11T22:55:41Z,qh2z8vvu,serial-reaction-time,1,R,3,1,5,2314,0,2,476,232,T
2023-04-11T22:55:41Z,qh2z8vvu,serial-reaction-time,1,P,3,1,6,2314,0,1,503.199999988079,321,H
2023-04-11T22:55:42Z,qh2z8vvu,serial-reaction-time,1,R,3,1,7,2314,0,4,735.8999999761581,214,L
2023-04-11T22:55:43Z,qh2z8vvu,serial-reaction-time,1,P,3,1,8,2314,0,4,377,144,H
2023-04-11T22:55:43Z,qh2z8vvu,serial-reaction-time,1,R,3,1,9,2314,0,4,317.10000002384186,444,R
2023-04-11T22:55:44Z,qh2z8vvu,serial-reaction-time,1,P,3,1,10,2314,0,2,595.6999999880791,442,H
2023-04-11T22:55:45Z,qh2z8vvu,serial-reaction-time,NA,R,3,1,11,2314,0,4,623.3999999761581,424,T
2023-04-11T22:55:45Z,qh2z8vvu,serial-reaction-time,1,R,3,0,11,2314,0,4,948.5,424,T
2023-04-11T22:55:46Z,qh2z8vvu,serial-reaction-time,1,P,3,1,12,2314,0,3,599.8999999761581,243,H
2023-04-11T22:55:46Z,qh2z8vvu,serial-reaction-time,1,R,3,1,13,2314,0,2,407,432,H
2023-04-11T22:55:47Z,qh2z8vvu,serial-reaction-time,1,P,3,1,14,2314,0,1,406.300000011921,321,H
2023-04-11T22:55:48Z,qh2z8vvu,serial-reaction-time,1,R,3,1,15,2314,0,2,653.5,212,T
2023-04-11T22:55:48Z,qh2z8vvu,serial-reaction-time,NA,P,3,1,16,2314,0,4,546.4000000357628,124,H
2023-04-11T22:55:49Z,qh2z8vvu,serial-reaction-time,1,P,3,0,16,2314,0,4,893.7000000476837,124,H
2023-04-11T22:55:49Z,qh2z8vvu,serial-reaction-time,1,R,3,1,17,2314,0,4,390.199999988079,244,L
2023-04-11T22:55:50Z,qh2z8vvu,serial-reaction-time,1,P,3,1,18,2314,0,2,614.6999999880791,442,H
2023-04-11T22:55:51Z,qh2z8vvu,serial-reaction-time,1,R,3,1,19,2314,0,3,675.9000000357628,423,L
2023-04-11T22:55:51Z,qh2z8vvu,serial-reaction-time,NA,P,3,1,20,2314,0,3,303.30000001192093,233,H
2023-04-11T22:55:51Z,qh2z8vvu,serial-reaction-time,1,P,3,0,20,2314,0,3,653.8999999761581,233,H
2023-04-11T22:55:52Z,qh2z8vvu,serial-reaction-time,1,R,3,1,21,2314,0,4,736.1000000238419,334,L
2023-04-11T22:55:53Z,qh2z8vvu,serial-reaction-time,1,P,3,1,22,2314,0,1,531.2999999523163,341,H
2023-04-11T22:55:54Z,qh2z8vvu,serial-reaction-time,NA,R,3,1,23,2314,0,2,510.699999988079,412,H
2023-04-11T22:55:54Z,qh2z8vvu,serial-reaction-time,1,R,3,0,23,2314,0,2,728.5,412,H
2023-04-11T22:55:55Z,qh2z8vvu,serial-reaction-time,1,P,3,1,24,2314,0,4,627.0999999642372,124,H
2023-04-11T22:55:55Z,qh2z8vvu,serial-reaction-time,1,R,3,1,25,2314,0,2,472.10000002384186,242,T
2023-04-11T22:55:56Z,qh2z8vvu,serial-reaction-time,1,P,3,1,26,2314,0,2,327.9000000357628,422,H
2023-04-11T22:55:56Z,qh2z8vvu,serial-reaction-time,1,R,3,1,27,2314,0,3,727.9000000357628,223,H
2023-04-11T22:55:57Z,qh2z8vvu,serial-reaction-time,1,P,3,1,28,2314,0,3,391.39999997615814,233,H
2023-04-11T22:55:58Z,qh2z8vvu,serial-reaction-time,NA,R,3,1,29,2314,0,4,429.60000002384186,334,L
2023-04-11T22:55:58Z,qh2z8vvu,serial-reaction-time,1,R,3,0,29,2314,0,4,622.1999999880791,334,L
2023-04-11T22:55:58Z,qh2z8vvu,serial-reaction-time,1,P,3,1,30,2314,0,1,354.5999999642372,341,H
2023-04-11T22:55:59Z,qh2z8vvu,serial-reaction-time,1,R,3,1,31,2314,0,3,483,413,L
2023-04-11T22:55:59Z,qh2z8vvu,serial-reaction-time,1,P,3,1,32,2314,0,4,419.39999997615814,134,H
2023-04-11T22:56:00Z,qh2z8vvu,serial-reaction-time,1,R,3,1,33,2314,0,2,454.5999999642372,342,L
2023-04-11T22:56:00Z,qh2z8vvu,serial-reaction-time,1,P,3,1,34,2314,0,2,363.699999988079,422,H
2023-04-11T22:56:01Z,qh2z8vvu,serial-reaction-time,1,R,3,1,35,2314,0,3,764.6999999880791,223,H
2023-04-11T22:56:02Z,qh2z8vvu,serial-reaction-time,1,P,3,1,36,2314,0,3,362.10000002384186,233,H
2023-04-11T22:56:02Z,qh2z8vvu,serial-reaction-time,1,R,3,1,37,2314,0,3,384.5,333,R
2023-04-11T22:56:03Z,qh2z8vvu,serial-reaction-time,1,P,3,1,38,2314,0,1,430.39999997615814,331,H
2023-04-11T22:56:03Z,qh2z8vvu,serial-reaction-time,1,R,3,1,39,2314,0,1,364.0999999642372,311,H
2023-04-11T22:56:04Z,qh2z8vvu,serial-reaction-time,1,P,3,1,40,2314,0,4,534.8000000119209,114,H
2023-04-11T22:56:04Z,qh2z8vvu,serial-reaction-time,1,R,3,1,41,2314,0,1,352.39999997615814,141,T
2023-04-11T22:56:05Z,qh2z8vvu,serial-reaction-time,1,P,3,1,42,2314,0,2,611.3000000119209,412,H
2023-04-11T22:56:06Z,qh2z8vvu,serial-reaction-time,1,R,3,1,43,2314,0,3,482.0999999642372,123,L
2023-04-11T22:56:06Z,qh2z8vvu,serial-reaction-time,NA,P,3,1,44,2314,0,3,360.800000011921,233,H
2023-04-11T22:56:07Z,qh2z8vvu,serial-reaction-time,1,P,3,0,44,2314,0,3,682.5999999642372,233,H
2023-04-11T22:56:07Z,qh2z8vvu,serial-reaction-time,1,R,3,1,45,2314,0,1,497.0999999642372,331,H
2023-04-11T22:56:08Z,qh2z8vvu,serial-reaction-time,1,P,3,1,46,2314,0,1,392.5999999642372,311,H
2023-04-11T22:56:08Z,qh2z8vvu,serial-reaction-time,1,R,3,1,47,2314,0,2,454.2999999523163,112,L
2023-04-11T22:56:09Z,qh2z8vvu,serial-reaction-time,1,P,3,1,48,2314,0,4,388.4000000357628,124,H
2023-04-11T22:56:10Z,qh2z8vvu,serial-reaction-time,1,R,3,1,49,2314,0,3,564.6999999880791,243,H
2023-04-11T22:56:10Z,qh2z8vvu,serial-reaction-time,1,P,3,1,50,2314,0,2,349,432,H
2023-04-11T22:56:11Z,qh2z8vvu,serial-reaction-time,1,R,3,1,51,2314,0,3,466.199999988079,323,T
2023-04-11T22:56:11Z,qh2z8vvu,serial-reaction-time,1,P,3,1,52,2314,0,3,320.0999999642372,233,H
2023-04-11T22:56:12Z,qh2z8vvu,serial-reaction-time,1,R,3,1,53,2314,0,2,382.5,332,L
2023-04-11T22:56:12Z,qh2z8vvu,serial-reaction-time,1,P,3,1,54,2314,0,1,474.10000002384186,321,H
2023-04-11T22:56:13Z,qh2z8vvu,serial-reaction-time,1,R,3,1,55,2314,0,1,337.60000002384186,211,L
2023-04-11T22:56:13Z,qh2z8vvu,serial-reaction-time,1,P,3,1,56,2314,0,4,511.89999997615814,114,H
2023-04-11T22:56:14Z,qh2z8vvu,serial-reaction-time,1,R,3,1,57,2314,0,2,478.2999999523163,142,L
2023-04-11T22:56:15Z,qh2z8vvu,serial-reaction-time,1,P,3,1,58,2314,0,2,538.8999999761581,422,H
2023-04-11T22:56:15Z,qh2z8vvu,serial-reaction-time,1,R,3,1,59,2314,0,3,401,223,H
2023-04-11T22:56:16Z,qh2z8vvu,serial-reaction-time,1,P,3,1,60,2314,0,3,295.60000002384186,233,H
2023-04-11T22:56:16Z,qh2z8vvu,serial-reaction-time,1,R,3,1,61,2314,0,1,349.9000000357628,331,H
2023-04-11T22:56:16Z,qh2z8vvu,serial-reaction-time,NA,P,3,1,62,2314,0,1,380.7000000476837,311,H
2023-04-11T22:56:17Z,qh2z8vvu,serial-reaction-time,1,P,3,0,62,2314,0,1,451.7000000476837,311,H
2023-04-11T22:56:17Z,qh2z8vvu,serial-reaction-time,1,R,3,1,63,2314,0,4,493.39999997615814,114,H
2023-04-11T22:56:18Z,qh2z8vvu,serial-reaction-time,1,P,3,1,64,2314,0,4,304.19999998807907,144,H
2023-04-11T22:56:18Z,qh2z8vvu,serial-reaction-time,1,R,3,1,65,2314,0,3,558,443,L
2023-04-11T22:56:19Z,qh2z8vvu,serial-reaction-time,1,P,3,1,66,2314,0,2,418.60000002384186,432,H
2023-04-11T22:56:19Z,qh2z8vvu,serial-reaction-time,1,R,3,1,67,2314,0,1,307.4000000357628,321,H
2023-04-11T22:56:20Z,qh2z8vvu,serial-reaction-time,1,P,3,1,68,2314,0,3,402.39999997615814,213,H
2023-04-11T22:56:20Z,qh2z8vvu,serial-reaction-time,1,R,3,1,69,2314,0,1,482.7999999523163,131,T
2023-04-11T22:56:21Z,qh2z8vvu,serial-reaction-time,1,P,3,1,70,2314,0,1,305.4000000357628,311,H
2023-04-11T22:56:21Z,qh2z8vvu,serial-reaction-time,1,R,3,1,71,2314,0,1,296.7000000476837,111,R
2023-04-11T22:56:22Z,qh2z8vvu,serial-reaction-time,1,P,3,1,72,2314,0,4,591.1999999880791,114,H
2023-04-11T22:56:22Z,qh2z8vvu,serial-reaction-time,1,R,3,1,73,2314,0,2,380,142,L
2023-04-11T22:56:23Z,qh2z8vvu,serial-reaction-time,NA,P,3,1,74,2314,0,2,356.2000000476837,422,H
2023-04-11T22:56:23Z,qh2z8vvu,serial-reaction-time,1,P,3,0,74,2314,0,2,569.7000000476837,422,H
2023-04-11T22:56:24Z,qh2z8vvu,serial-reaction-time,NA,R,3,1,75,2314,0,4,454.699999988079,224,L
2023-04-11T22:56:24Z,qh2z8vvu,serial-reaction-time,1,R,3,0,75,2314,0,4,633.3999999761581,224,L
2023-04-11T22:56:25Z,qh2z8vvu,serial-reaction-time,NA,P,3,1,76,2314,0,3,517.3000000119209,243,H
2023-04-11T22:56:25Z,qh2z8vvu,serial-reaction-time,1,P,3,0,76,2314,0,3,922.100000023842,243,H
2023-04-11T22:56:26Z,qh2z8vvu,serial-reaction-time,1,R,3,1,77,2314,0,2,664.3999999761581,432,H
2023-04-11T22:56:26Z,qh2z8vvu,serial-reaction-time,1,P,3,1,78,2314,0,1,498.4000000357628,321,H
2023-04-11T22:56:27Z,qh2z8vvu,serial-reaction-time,NA,R,3,1,79,2314,0,1,532.6000000238419,211,L
2023-04-11T22:56:27Z,qh2z8vvu,serial-reaction-time,1,R,3,0,79,2314,0,1,759,211,L
2023-04-11T22:56:28Z,qh2z8vvu,serial-reaction-time,1,P,3,1,80,2314,0,4,582.6999999880791,114,H
2023-04-11T22:56:33Z,qh2z8vvu,html-keyboard-response,NA,NA,NA,NA,NA,NA,NA,NA,NA,NA,NA
2023-04-11T22:56:34Z,qh2z8vvu,html-keyboard-response,NA,NA,NA,NA,NA,NA,NA,NA,NA,NA,NA
2023-04-11T22:56:35Z,qh2z8vvu,serial-reaction-time,1,R,4,1,1,2314,0,3,679.8000000119209,3,X
2023-04-11T22:56:36Z,qh2z8vvu,serial-reaction-time,1,P,4,1,2,2314,0,2,452.5,32,X
2023-04-11T22:56:36Z,qh2z8vvu,serial-reaction-time,1,R,4,1,3,2314,0,2,351.60000002384186,322,L
2023-04-11T22:56:37Z,qh2z8vvu,serial-reaction-time,1,P,4,1,4,2314,0,3,411.5,223,H
2023-04-11T22:56:37Z,qh2z8vvu,serial-reaction-time,1,R,4,1,5,2314,0,1,373.10000002384186,231,L
2023-04-11T22:56:38Z,qh2z8vvu,serial-reaction-time,1,P,4,1,6,2314,0,1,344.39999997615814,311,H
2023-04-11T22:56:38Z,qh2z8vvu,serial-reaction-time,1,R,4,1,7,2314,0,1,319.89999997615814,111,R
2023-04-11T22:56:39Z,qh2z8vvu,serial-reaction-time,1,P,4,1,8,2314,0,4,490.39999997615814,114,H
2023-04-11T22:56:40Z,qh2z8vvu,serial-reaction-time,NA,R,4,1,9,2314,0,3,473.199999988079,143,L
2023-04-11T22:56:40Z,qh2z8vvu,serial-reaction-time,1,R,4,0,9,2314,0,3,751.3999999761581,143,L
2023-04-11T22:56:40Z,qh2z8vvu,serial-reaction-time,1,P,4,1,10,2314,0,2,329.30000001192093,432,H
2023-04-11T22:56:41Z,qh2z8vvu,serial-reaction-time,1,R,4,1,11,2314,0,2,313.5,322,L
2023-04-11T22:56:41Z,qh2z8vvu,serial-reaction-time,1,P,4,1,12,2314,0,3,408.89999997615814,223,H
2023-04-11T22:56:42Z,qh2z8vvu,serial-reaction-time,1,R,4,1,13,2314,0,3,326.89999997615814,233,H
2023-04-11T22:56:42Z,qh2z8vvu,serial-reaction-time,1,P,4,1,14,2314,0,1,412.5,331,H
2023-04-11T22:56:43Z,qh2z8vvu,serial-reaction-time,1,R,4,1,15,2314,0,4,432.199999988079,314,L
2023-04-11T22:56:43Z,qh2z8vvu,serial-reaction-time,1,P,4,1,16,2314,0,4,388.199999988079,144,H
2023-04-11T22:56:44Z,qh2z8vvu,serial-reaction-time,1,R,4,1,17,2314,0,3,432,443,L
2023-04-11T22:56:44Z,qh2z8vvu,serial-reaction-time,1,P,4,1,18,2314,0,2,388.199999988079,432,H
2023-04-11T22:56:45Z,qh2z8vvu,serial-reaction-time,1,R,4,1,19,2314,0,4,482.699999988079,324,L
2023-04-11T22:56:46Z,qh2z8vvu,serial-reaction-time,NA,P,4,1,20,2314,0,3,391.89999997615814,243,H
2023-04-11T22:56:46Z,qh2z8vvu,serial-reaction-time,1,P,4,0,20,2314,0,3,632.8000000119209,243,H
2023-04-11T22:56:46Z,qh2z8vvu,serial-reaction-time,1,R,4,1,21,2314,0,4,530.8999999761581,434,T
2023-04-11T22:56:47Z,qh2z8vvu,serial-reaction-time,1,P,4,1,22,2314,0,1,404.39999997615814,341,H
2023-04-11T22:56:48Z,qh2z8vvu,serial-reaction-time,1,R,4,1,23,2314,0,1,372,411,L
2023-04-11T22:56:48Z,qh2z8vvu,serial-reaction-time,1,P,4,1,24,2314,0,4,513.8000000119209,114,H
2023-04-11T22:56:49Z,qh2z8vvu,serial-reaction-time,1,R,4,1,25,2314,0,2,394.5999999642372,142,L
2023-04-11T22:56:49Z,qh2z8vvu,serial-reaction-time,1,P,4,1,26,2314,0,2,324.69999998807907,422,H
2023-04-11T22:56:50Z,qh2z8vvu,serial-reaction-time,1,R,4,1,27,2314,0,1,359.60000002384186,221,L
2023-04-11T22:56:50Z,qh2z8vvu,serial-reaction-time,1,P,4,1,28,2314,0,3,389.800000011921,213,H
2023-04-11T22:56:51Z,qh2z8vvu,serial-reaction-time,1,R,4,1,29,2314,0,2,461.5,132,L
2023-04-11T22:56:51Z,qh2z8vvu,serial-reaction-time,1,P,4,1,30,2314,0,1,434.300000011921,321,H
2023-04-11T22:56:52Z,qh2z8vvu,serial-reaction-time,1,R,4,1,31,2314,0,2,435,212,T
2023-04-11T22:56:52Z,qh2z8vvu,serial-reaction-time,1,P,4,1,32,2314,0,4,456.699999988079,124,H
2023-04-11T22:56:53Z,qh2z8vvu,serial-reaction-time,1,R,4,1,33,2314,0,3,511.2999999523163,243,H
2023-04-11T22:56:54Z,qh2z8vvu,serial-reaction-time,1,P,4,1,34,2314,0,2,337.30000001192093,432,H
2023-04-11T22:56:54Z,qh2z8vvu,serial-reaction-time,1,R,4,1,35,2314,0,3,423.300000011921,323,T
2023-04-11T22:56:55Z,qh2z8vvu,serial-reaction-time,1,P,4,1,36,2314,0,3,320.80000001192093,233,H
2023-04-11T22:56:55Z,qh2z8vvu,serial-reaction-time,1,R,4,1,37,2314,0,3,347.89999997615814,333,R
2023-04-11T22:56:55Z,qh2z8vvu,serial-reaction-time,1,P,4,1,38,2314,0,1,331.5,331,H
2023-04-11T22:56:56Z,qh2z8vvu,serial-reaction-time,1,R,4,1,39,2314,0,4,361.60000002384186,314,L
2023-04-11T22:56:56Z,qh2z8vvu,serial-reaction-time,1,P,4,1,40,2314,0,4,385.5999999642372,144,H
2023-04-11T22:56:57Z,qh2z8vvu,serial-reaction-time,1,R,4,1,41,2314,0,4,369.5999999642372,444,R
2023-04-11T22:56:57Z,qh2z8vvu,serial-reaction-time,NA,P,4,1,42,2314,0,2,349.19999998807907,442,H
2023-04-11T22:56:57Z,qh2z8vvu,serial-reaction-time,1,P,4,0,42,2314,0,2,382.89999997615814,442,H
2023-04-11T22:56:58Z,qh2z8vvu,serial-reaction-time,1,R,4,1,43,2314,0,3,428.5999999642372,423,L
2023-04-11T22:56:58Z,qh2z8vvu,serial-reaction-time,1,P,4,1,44,2314,0,3,314.60000002384186,233,H
2023-04-11T22:56:59Z,qh2z8vvu,serial-reaction-time,1,R,4,1,45,2314,0,2,342.89999997615814,332,L
2023-04-11T22:56:59Z,qh2z8vvu,serial-reaction-time,1,P,4,1,46,2314,0,1,403,321,H
2023-04-11T22:57:00Z,qh2z8vvu,serial-reaction-time,1,R,4,1,47,2314,0,3,312.60000002384186,213,H
2023-04-11T22:57:00Z,qh2z8vvu,serial-reaction-time,1,P,4,1,48,2314,0,4,343.60000002384186,134,H
2023-04-11T22:57:01Z,qh2z8vvu,serial-reaction-time,1,R,4,1,49,2314,0,4,370.9000000357628,344,L
2023-04-11T22:57:01Z,qh2z8vvu,serial-reaction-time,1,P,4,1,50,2314,0,2,391.2000000476837,442,H
2023-04-11T22:57:02Z,qh2z8vvu,serial-reaction-time,1,R,4,1,51,2314,0,3,391.5,423,L
2023-04-11T22:57:02Z,qh2z8vvu,serial-reaction-time,NA,P,4,1,52,2314,0,3,299.2999999523163,233,H
2023-04-11T22:57:03Z,qh2z8vvu,serial-reaction-time,1,P,4,0,52,2314,0,3,502.7999999523163,233,H
2023-04-11T22:57:03Z,qh2z8vvu,serial-reaction-time,1,R,4,1,53,2314,0,3,437,333,R
2023-04-11T22:57:04Z,qh2z8vvu,serial-reaction-time,1,P,4,1,54,2314,0,1,425.89999997615814,331,H
2023-04-11T22:57:04Z,qh2z8vvu,serial-reaction-time,NA,R,4,1,55,2314,0,3,373.300000011921,313,T
2023-04-11T22:57:04Z,qh2z8vvu,serial-reaction-time,1,R,4,0,55,2314,0,3,554.1000000238419,313,T
2023-04-11T22:57:05Z,qh2z8vvu,serial-reaction-time,1,P,4,1,56,2314,0,4,496.7999999523163,134,H
2023-04-11T22:57:05Z,qh2z8vvu,serial-reaction-time,1,R,4,1,57,2314,0,4,330.10000002384186,344,L
2023-04-11T22:57:06Z,qh2z8vvu,serial-reaction-time,1,P,4,1,58,2314,0,2,326.80000001192093,442,H
2023-04-11T22:57:06Z,qh2z8vvu,serial-reaction-time,1,R,4,1,59,2314,0,4,367.5,424,T
2023-04-11T22:57:07Z,qh2z8vvu,serial-reaction-time,1,P,4,1,60,2314,0,3,420.5999999642372,243,H
2023-04-11T22:57:07Z,qh2z8vvu,serial-reaction-time,1,R,4,1,61,2314,0,2,307.69999998807907,432,H
2023-04-11T22:57:08Z,qh2z8vvu,serial-reaction-time,1,P,4,1,62,2314,0,1,432.0999999642372,321,H
2023-04-11T22:57:08Z,qh2z8vvu,serial-reaction-time,1,R,4,1,63,2314,0,2,421.5,212,T
2023-04-11T22:57:09Z,qh2z8vvu,serial-reaction-time,1,P,4,1,64,2314,0,4,425,124,H
2023-04-11T22:57:09Z,qh2z8vvu,serial-reaction-time,1,R,4,1,65,2314,0,2,351.89999997615814,242,T
2023-04-11T22:57:10Z,qh2z8vvu,serial-reaction-time,1,P,4,1,66,2314,0,2,347.39999997615814,422,H
2023-04-11T22:57:10Z,qh2z8vvu,serial-reaction-time,NA,R,4,1,67,2314,0,3,357.0999999642372,223,H
2023-04-11T22:57:11Z,qh2z8vvu,serial-reaction-time,1,R,4,0,67,2314,0,3,646.5,223,H
2023-04-11T22:57:11Z,qh2z8vvu,serial-reaction-time,1,P,4,1,68,2314,0,3,342.19999998807907,233,H
2023-04-11T22:57:12Z,qh2z8vvu,serial-reaction-time,1,R,4,1,69,2314,0,4,531.8000000119209,334,L
2023-04-11T22:57:12Z,qh2z8vvu,serial-reaction-time,1,P,4,1,70,2314,0,1,425.89999997615814,341,H
2023-04-11T22:57:13Z,qh2z8vvu,serial-reaction-time,1,R,4,1,71,2314,0,3,294.89999997615814,413,L
2023-04-11T22:57:13Z,qh2z8vvu,serial-reaction-time,1,P,4,1,72,2314,0,4,348.0999999642372,134,H
2023-04-11T22:57:14Z,qh2z8vvu,serial-reaction-time,1,R,4,1,73,2314,0,2,585.1999999880791,342,L
2023-04-11T22:57:15Z,qh2z8vvu,serial-reaction-time,1,P,4,1,74,2314,0,2,772.7999999523163,422,H
2023-04-11T22:57:16Z,qh2z8vvu,serial-reaction-time,1,R,4,1,75,2314,0,3,576.5,223,H
2023-04-11T22:57:16Z,qh2z8vvu,serial-reaction-time,1,P,4,1,76,2314,0,3,413.89999997615814,233,H
2023-04-11T22:57:17Z,qh2z8vvu,serial-reaction-time,NA,R,4,1,77,2314,0,2,502.39999997615814,332,L
2023-04-11T22:57:17Z,qh2z8vvu,serial-reaction-time,1,R,4,0,77,2314,0,2,579.6000000238419,332,L
2023-04-11T22:57:17Z,qh2z8vvu,serial-reaction-time,1,P,4,1,78,2314,0,1,475.2000000476837,321,H
2023-04-11T22:57:18Z,qh2z8vvu,serial-reaction-time,1,R,4,1,79,2314,0,3,371.0999999642372,213,H
2023-04-11T22:57:19Z,qh2z8vvu,serial-reaction-time,1,P,4,1,80,2314,0,4,416.699999988079,134,H
2023-04-11T22:57:24Z,qh2z8vvu,html-keyboard-response,NA,NA,NA,NA,NA,NA,NA,NA,NA,NA,NA
2023-04-11T22:57:24Z,qh2z8vvu,html-keyboard-response,NA,NA,NA,NA,NA,NA,NA,NA,NA,NA,NA
2023-04-11T22:57:26Z,qh2z8vvu,serial-reaction-time,1,R,5,1,1,2314,0,2,345.2000000476837,2,X
2023-04-11T22:57:26Z,qh2z8vvu,serial-reaction-time,1,P,5,1,2,2314,0,2,198.69999998807907,22,X
2023-04-11T22:57:26Z,qh2z8vvu,serial-reaction-time,1,R,5,1,3,2314,0,3,308.4000000357628,223,H
2023-04-11T22:57:27Z,qh2z8vvu,serial-reaction-time,1,P,5,1,4,2314,0,3,311,233,H
2023-04-11T22:57:27Z,qh2z8vvu,serial-reaction-time,1,R,5,1,5,2314,0,3,329.5,333,R
2023-04-11T22:57:28Z,qh2z8vvu,serial-reaction-time,1,P,5,1,6,2314,0,1,365.4000000357628,331,H
2023-04-11T22:57:28Z,qh2z8vvu,serial-reaction-time,NA,R,5,1,7,2314,0,4,204.5,314,L
2023-04-11T22:57:28Z,qh2z8vvu,serial-reaction-time,NA,R,5,0,7,2314,0,4,415.60000002384186,314,L
2023-04-11T22:57:28Z,qh2z8vvu,serial-reaction-time,1,R,5,0,7,2314,0,4,586.6000000238419,314,L
2023-04-11T22:57:29Z,qh2z8vvu,serial-reaction-time,1,P,5,1,8,2314,0,4,336.0999999642372,144,H
2023-04-11T22:57:29Z,qh2z8vvu,serial-reaction-time,1,R,5,1,9,2314,0,2,338.80000001192093,442,H
2023-04-11T22:57:30Z,qh2z8vvu,serial-reaction-time,1,P,5,1,10,2314,0,2,255.4000000357628,422,H
2023-04-11T22:57:30Z,qh2z8vvu,serial-reaction-time,1,R,5,1,11,2314,0,2,213.19999998807907,222,R
2023-04-11T22:57:30Z,qh2z8vvu,serial-reaction-time,NA,P,5,1,12,2314,0,3,316,223,H
2023-04-11T22:57:31Z,qh2z8vvu,serial-reaction-time,1,P,5,0,12,2314,0,3,555.0999999642372,223,H
2023-04-11T22:57:31Z,qh2z8vvu,serial-reaction-time,1,R,5,1,13,2314,0,4,365.7000000476837,234,L
2023-04-11T22:57:32Z,qh2z8vvu,serial-reaction-time,1,P,5,1,14,2314,0,1,380.89999997615814,341,H
2023-04-11T22:57:32Z,qh2z8vvu,serial-reaction-time,1,R,5,1,15,2314,0,3,312.80000001192093,413,L
2023-04-11T22:57:33Z,qh2z8vvu,serial-reaction-time,1,P,5,1,16,2314,0,4,425.699999988079,134,H
2023-04-11T22:57:33Z,qh2z8vvu,serial-reaction-time,1,R,5,1,17,2314,0,2,301.5,342,L
2023-04-11T22:57:34Z,qh2z8vvu,serial-reaction-time,1,P,5,1,18,2314,0,2,323.5,422,H
2023-04-11T22:57:34Z,qh2z8vvu,serial-reaction-time,1,R,5,1,19,2314,0,2,271.89999997615814,222,R
2023-04-11T22:57:34Z,qh2z8vvu,serial-reaction-time,NA,P,5,1,20,2314,0,3,315.30000001192093,223,H
2023-04-11T22:57:35Z,qh2z8vvu,serial-reaction-time,1,P,5,0,20,2314,0,3,510.300000011921,223,H
2023-04-11T22:57:35Z,qh2z8vvu,serial-reaction-time,1,R,5,1,21,2314,0,3,321.89999997615814,233,H
2023-04-11T22:57:36Z,qh2z8vvu,serial-reaction-time,1,P,5,1,22,2314,0,1,345.4000000357628,331,H
2023-04-11T22:57:36Z,qh2z8vvu,serial-reaction-time,NA,R,5,1,23,2314,0,2,358.19999998807907,312,L
2023-04-11T22:57:36Z,qh2z8vvu,serial-reaction-time,1,R,5,0,23,2314,0,2,511.199999988079,312,L
2023-04-11T22:57:37Z,qh2z8vvu,serial-reaction-time,NA,P,5,1,24,2314,0,4,340.5999999642372,124,H
2023-04-11T22:57:37Z,qh2z8vvu,serial-reaction-time,1,P,5,0,24,2314,0,4,573.5,124,H
2023-04-11T22:57:37Z,qh2z8vvu,serial-reaction-time,NA,R,5,1,25,2314,0,3,293.9000000357628,243,H
2023-04-11T22:57:38Z,qh2z8vvu,serial-reaction-time,1,R,5,0,25,2314,0,3,459.7000000476837,243,H
2023-04-11T22:57:38Z,qh2z8vvu,serial-reaction-time,1,P,5,1,26,2314,0,2,377.39999997615814,432,H
2023-04-11T22:57:38Z,qh2z8vvu,serial-reaction-time,NA,R,5,1,27,2314,0,1,315.89999997615814,321,H
2023-04-11T22:57:39Z,qh2z8vvu,serial-reaction-time,1,R,5,0,27,2314,0,1,379.699999988079,321,H
2023-04-11T22:57:39Z,qh2z8vvu,serial-reaction-time,1,P,5,1,28,2314,0,3,368.9000000357628,213,H
2023-04-11T22:57:39Z,qh2z8vvu,serial-reaction-time,1,R,5,1,29,2314,0,4,304.30000001192093,134,H
2023-04-11T22:57:40Z,qh2z8vvu,serial-reaction-time,NA,P,5,1,30,2314,0,1,352.69999998807907,341,H
2023-04-11T22:57:40Z,qh2z8vvu,serial-reaction-time,1,P,5,0,30,2314,0,1,500.0999999642372,341,H
2023-04-11T22:57:41Z,qh2z8vvu,serial-reaction-time,NA,R,5,1,31,2314,0,4,416.0999999642372,414,T
2023-04-11T22:57:41Z,qh2z8vvu,serial-reaction-time,1,R,5,0,31,2314,0,4,684.3999999761581,414,T
2023-04-11T22:57:41Z,qh2z8vvu,serial-reaction-time,1,P,5,1,32,2314,0,4,333.10000002384186,144,H
2023-04-11T22:57:42Z,qh2z8vvu,serial-reaction-time,1,R,5,1,33,2314,0,4,231,444,R
2023-04-11T22:57:42Z,qh2z8vvu,serial-reaction-time,1,P,5,1,34,2314,0,2,334.9000000357628,442,H
2023-04-11T22:57:43Z,qh2z8vvu,serial-reaction-time,NA,R,5,1,35,2314,0,1,218.80000001192093,421,L
2023-04-11T22:57:43Z,qh2z8vvu,serial-reaction-time,1,R,5,0,35,2314,0,1,634.9000000357628,421,L
2023-04-11T22:57:43Z,qh2z8vvu,serial-reaction-time,1,P,5,1,36,2314,0,3,331.10000002384186,213,H
2023-04-11T22:57:44Z,qh2z8vvu,serial-reaction-time,1,R,5,1,37,2314,0,2,369.199999988079,132,L
2023-04-11T22:57:44Z,qh2z8vvu,serial-reaction-time,1,P,5,1,38,2314,0,1,419.39999997615814,321,H
2023-04-11T22:57:45Z,qh2z8vvu,serial-reaction-time,1,R,5,1,39,2314,0,1,336.60000002384186,211,L
2023-04-11T22:57:45Z,qh2z8vvu,serial-reaction-time,1,P,5,1,40,2314,0,4,374.39999997615814,114,H
2023-04-11T22:57:46Z,qh2z8vvu,serial-reaction-time,1,R,5,1,41,2314,0,4,387.60000002384186,144,H
2023-04-11T22:57:46Z,qh2z8vvu,serial-reaction-time,1,P,5,1,42,2314,0,2,339.60000002384186,442,H
2023-04-11T22:57:47Z,qh2z8vvu,serial-reaction-time,1,R,5,1,43,2314,0,1,387.39999997615814,421,L
2023-04-11T22:57:47Z,qh2z8vvu,serial-reaction-time,1,P,5,1,44,2314,0,3,479.39999997615814,213,H
2023-04-11T22:57:48Z,qh2z8vvu,serial-reaction-time,1,R,5,1,45,2314,0,1,383.2000000476837,131,T
2023-04-11T22:57:48Z,qh2z8vvu,serial-reaction-time,NA,P,5,1,46,2314,0,1,309,311,H
2023-04-11T22:57:49Z,qh2z8vvu,serial-reaction-time,1,P,5,0,46,2314,0,1,548.7999999523163,311,H
2023-04-11T22:57:49Z,qh2z8vvu,serial-reaction-time,NA,R,5,1,47,2314,0,4,228.19999998807907,114,H
2023-04-11T22:57:49Z,qh2z8vvu,serial-reaction-time,1,R,5,0,47,2314,0,4,433.39999997615814,114,H
2023-04-11T22:57:50Z,qh2z8vvu,serial-reaction-time,1,P,5,1,48,2314,0,4,374.800000011921,144,H
2023-04-11T22:57:50Z,qh2z8vvu,serial-reaction-time,NA,R,5,1,49,2314,0,3,390.89999997615814,443,L
2023-04-11T22:57:50Z,qh2z8vvu,serial-reaction-time,1,R,5,0,49,2314,0,3,562.5999999642372,443,L
2023-04-11T22:57:51Z,qh2z8vvu,serial-reaction-time,NA,P,5,1,50,2314,0,2,273.19999998807907,432,H
2023-04-11T22:57:51Z,qh2z8vvu,serial-reaction-time,1,P,5,0,50,2314,0,2,389.10000002384186,432,H
2023-04-11T22:57:51Z,qh2z8vvu,serial-reaction-time,1,R,5,1,51,2314,0,3,381.2999999523163,323,T
2023-04-11T22:57:52Z,qh2z8vvu,serial-reaction-time,NA,P,5,1,52,2314,0,3,312.39999997615814,233,H
2023-04-11T22:57:52Z,qh2z8vvu,serial-reaction-time,1,P,5,0,52,2314,0,3,367.89999997615814,233,H
2023-04-11T22:57:53Z,qh2z8vvu,serial-reaction-time,1,R,5,1,53,2314,0,1,419,331,H
2023-04-11T22:57:53Z,qh2z8vvu,serial-reaction-time,1,P,5,1,54,2314,0,1,304.19999998807907,311,H
2023-04-11T22:57:53Z,qh2z8vvu,serial-reaction-time,1,R,5,1,55,2314,0,4,346.5,114,H
2023-04-11T22:57:54Z,qh2z8vvu,serial-reaction-time,1,P,5,1,56,2314,0,4,279,144,H
2023-04-11T22:57:54Z,qh2z8vvu,serial-reaction-time,1,R,5,1,57,2314,0,2,344.60000002384186,442,H
2023-04-11T22:57:55Z,qh2z8vvu,serial-reaction-time,1,P,5,1,58,2314,0,2,249.80000001192093,422,H
2023-04-11T22:57:55Z,qh2z8vvu,serial-reaction-time,NA,R,5,1,59,2314,0,3,357.80000001192093,223,H
2023-04-11T22:57:55Z,qh2z8vvu,serial-reaction-time,1,R,5,0,59,2314,0,3,462.10000002384186,223,H
2023-04-11T22:57:56Z,qh2z8vvu,serial-reaction-time,1,P,5,1,60,2314,0,3,361.199999988079,233,H
2023-04-11T22:57:56Z,qh2z8vvu,serial-reaction-time,1,R,5,1,61,2314,0,1,340.89999997615814,331,H
2023-04-11T22:57:57Z,qh2z8vvu,serial-reaction-time,NA,P,5,1,62,2314,0,1,323.30000001192093,311,H
2023-04-11T22:57:57Z,qh2z8vvu,serial-reaction-time,1,P,5,0,62,2314,0,1,565.0999999642372,311,H
2023-04-11T22:57:57Z,qh2z8vvu,serial-reaction-time,1,R,5,1,63,2314,0,1,195.5999999642372,111,R
2023-04-11T22:57:58Z,qh2z8vvu,serial-reaction-time,NA,P,5,1,64,2314,0,4,213,114,H
2023-04-11T22:57:58Z,qh2z8vvu,serial-reaction-time,1,P,5,0,64,2314,0,4,369.9000000357628,114,H
2023-04-11T22:57:58Z,qh2z8vvu,serial-reaction-time,NA,R,5,1,65,2314,0,1,299.19999998807907,141,T
2023-04-11T22:57:58Z,qh2z8vvu,serial-reaction-time,1,R,5,0,65,2314,0,1,492.39999997615814,141,T
2023-04-11T22:57:59Z,qh2z8vvu,serial-reaction-time,1,P,5,1,66,2314,0,2,414.5,412,H
2023-04-11T22:57:59Z,qh2z8vvu,serial-reaction-time,NA,R,5,1,67,2314,0,4,414.89999997615814,124,H
2023-04-11T22:58:00Z,qh2z8vvu,serial-reaction-time,1,R,5,0,67,2314,0,4,575.3999999761581,124,H
2023-04-11T22:58:00Z,qh2z8vvu,serial-reaction-time,1,P,5,1,68,2314,0,3,430.60000002384186,243,H
2023-04-11T22:58:01Z,qh2z8vvu,serial-reaction-time,1,R,5,1,69,2314,0,3,349.39999997615814,433,L
2023-04-11T22:58:01Z,qh2z8vvu,serial-reaction-time,NA,P,5,1,70,2314,0,1,220.30000001192093,331,H
2023-04-11T22:58:01Z,qh2z8vvu,serial-reaction-time,1,P,5,0,70,2314,0,1,328.60000002384186,331,H
2023-04-11T22:58:02Z,qh2z8vvu,serial-reaction-time,1,R,5,1,71,2314,0,4,431.800000011921,314,L
2023-04-11T22:58:02Z,qh2z8vvu,serial-reaction-time,1,P,5,1,72,2314,0,4,345.80000001192093,144,H
2023-04-11T22:58:03Z,qh2z8vvu,serial-reaction-time,1,R,5,1,73,2314,0,2,360.39999997615814,442,H
2023-04-11T22:58:03Z,qh2z8vvu,serial-reaction-time,1,P,5,1,74,2314,0,2,402,422,H
2023-04-11T22:58:04Z,qh2z8vvu,serial-reaction-time,NA,R,5,1,75,2314,0,4,421.199999988079,224,L
2023-04-11T22:58:04Z,qh2z8vvu,serial-reaction-time,1,R,5,0,75,2314,0,4,540,224,L
2023-04-11T22:58:04Z,qh2z8vvu,serial-reaction-time,1,P,5,1,76,2314,0,3,501,243,H
2023-04-11T22:58:05Z,qh2z8vvu,serial-reaction-time,1,R,5,1,77,2314,0,2,332.39999997615814,432,H
2023-04-11T22:58:05Z,qh2z8vvu,serial-reaction-time,1,P,5,1,78,2314,0,1,308.80000001192093,321,H
2023-04-11T22:58:06Z,qh2z8vvu,serial-reaction-time,NA,R,5,1,79,2314,0,2,312.69999998807907,212,T
2023-04-11T22:58:06Z,qh2z8vvu,serial-reaction-time,1,R,5,0,79,2314,0,2,559.6000000238419,212,T
2023-04-11T22:58:07Z,qh2z8vvu,serial-reaction-time,1,P,5,1,80,2314,0,4,446,124,H
2023-04-11T22:58:12Z,qh2z8vvu,html-keyboard-response,NA,NA,NA,NA,NA,NA,NA,NA,NA,NA,NA
2023-04-11T22:58:13Z,qh2z8vvu,html-keyboard-response,NA,NA,NA,NA,NA,NA,NA,NA,NA,NA,NA
2023-04-11T22:58:14Z,qh2z8vvu,fullscreen,NA,NA,NA,NA,NA,NA,NA,NA,NA,NA,NA
2023-04-12T15:03:16Z,tlzx847n,fullscreen,NA,NA,NA,NA,NA,NA,NA,NA,NA,NA,NA
2023-04-12T15:03:20Z,tlzx847n,html-keyboard-response,NA,NA,NA,NA,NA,NA,NA,NA,NA,NA,NA
2023-04-12T15:03:22Z,tlzx847n,serial-reaction-time,1,R,1,1,1,4231,0,3,1089,3,X
2023-04-12T15:03:22Z,tlzx847n,serial-reaction-time,1,P,1,1,2,4231,0,4,347.89999985694885,34,X
2023-04-12T15:03:23Z,tlzx847n,serial-reaction-time,NA,R,1,1,3,4231,0,4,277.90000009536743,344,L
2023-04-12T15:03:23Z,tlzx847n,serial-reaction-time,1,R,1,0,3,4231,0,4,567.4000000953674,344,L
2023-04-12T15:03:24Z,tlzx847n,serial-reaction-time,1,P,1,1,4,4231,0,2,516.2000000476837,442,H
2023-04-12T15:03:24Z,tlzx847n,serial-reaction-time,1,R,1,1,5,4231,0,4,353.90000009536743,424,T
2023-04-12T15:03:25Z,tlzx847n,serial-reaction-time,NA,P,1,1,6,4231,0,3,302.59999990463257,243,H
2023-04-12T15:03:25Z,tlzx847n,serial-reaction-time,1,P,1,0,6,4231,0,3,624.8999998569489,243,H
2023-04-12T15:03:26Z,tlzx847n,serial-reaction-time,1,R,1,1,7,4231,0,3,332.39999985694885,433,L
2023-04-12T15:03:26Z,tlzx847n,serial-reaction-time,1,P,1,1,8,4231,0,1,332.89999985694885,331,H
2023-04-12T15:03:26Z,tlzx847n,serial-reaction-time,1,R,1,1,9,4231,0,2,356.60000014305115,312,L
2023-04-12T15:03:27Z,tlzx847n,serial-reaction-time,1,P,1,1,10,4231,0,4,394.7999999523163,124,H
2023-04-12T15:03:27Z,tlzx847n,serial-reaction-time,1,R,1,1,11,4231,0,4,354.5,244,L
2023-04-12T15:03:28Z,tlzx847n,serial-reaction-time,1,P,1,1,12,4231,0,2,296.2000000476837,442,H
2023-04-12T15:03:28Z,tlzx847n,serial-reaction-time,1,R,1,1,13,4231,0,4,334,424,T
2023-04-12T15:03:29Z,tlzx847n,serial-reaction-time,1,P,1,1,14,4231,0,3,460,243,H
2023-04-12T15:03:29Z,tlzx847n,serial-reaction-time,1,R,1,1,15,4231,0,4,295,434,T
2023-04-12T15:03:30Z,tlzx847n,serial-reaction-time,1,P,1,1,16,4231,0,1,411.7999999523163,341,H
2023-04-12T15:03:30Z,tlzx847n,serial-reaction-time,1,R,1,1,17,4231,0,2,328.10000014305115,412,H
2023-04-12T15:03:31Z,tlzx847n,serial-reaction-time,1,P,1,1,18,4231,0,4,373.7999999523163,124,H
2023-04-12T15:03:31Z,tlzx847n,serial-reaction-time,1,R,1,1,19,4231,0,4,413.30000019073486,244,L
2023-04-12T15:03:32Z,tlzx847n,serial-reaction-time,1,P,1,1,20,4231,0,2,534,442,H
2023-04-12T15:03:33Z,tlzx847n,serial-reaction-time,1,R,1,1,21,4231,0,3,368.2000000476837,423,L
2023-04-12T15:03:33Z,tlzx847n,serial-reaction-time,1,P,1,1,22,4231,0,3,330.40000009536743,233,H
2023-04-12T15:03:34Z,tlzx847n,serial-reaction-time,1,R,1,1,23,4231,0,1,336.10000014305115,331,H
2023-04-12T15:03:34Z,tlzx847n,serial-reaction-time,1,P,1,1,24,4231,0,1,372.7000000476837,311,H
2023-04-12T15:03:35Z,tlzx847n,serial-reaction-time,1,R,1,1,25,4231,0,3,325,113,L
2023-04-12T15:03:35Z,tlzx847n,serial-reaction-time,1,P,1,1,26,4231,0,4,294.59999990463257,134,H
2023-04-12T15:03:35Z,tlzx847n,serial-reaction-time,1,R,1,1,27,4231,0,1,362.7999999523163,341,H
2023-04-12T15:03:36Z,tlzx847n,serial-reaction-time,1,P,1,1,28,4231,0,2,505.7000000476837,412,H
2023-04-12T15:03:37Z,tlzx847n,serial-reaction-time,1,R,1,1,29,4231,0,1,508.5,121,T
2023-04-12T15:03:38Z,tlzx847n,serial-reaction-time,1,P,1,1,30,4231,0,3,1112.7999999523165,213,H
2023-04-12T15:03:39Z,tlzx847n,serial-reaction-time,1,R,1,1,31,4231,0,1,468.40000009536743,131,T
2023-04-12T15:03:39Z,tlzx847n,serial-reaction-time,1,P,1,1,32,4231,0,1,363.90000009536743,311,H
2023-04-12T15:03:40Z,tlzx847n,serial-reaction-time,1,R,1,1,33,4231,0,3,518.2000000476837,113,L
2023-04-12T15:03:40Z,tlzx847n,serial-reaction-time,1,P,1,1,34,4231,0,4,499.59999990463257,134,H
2023-04-12T15:03:41Z,tlzx847n,serial-reaction-time,1,R,1,1,35,4231,0,3,473.40000009536743,343,T
2023-04-12T15:03:42Z,tlzx847n,serial-reaction-time,1,P,1,1,36,4231,0,2,424,432,H
2023-04-12T15:03:42Z,tlzx847n,serial-reaction-time,1,R,1,1,37,4231,0,1,390.59999990463257,321,H
2023-04-12T15:03:43Z,tlzx847n,serial-reaction-time,1,P,1,1,38,4231,0,3,637.2999999523163,213,H
2023-04-12T15:03:44Z,tlzx847n,serial-reaction-time,1,R,1,1,39,4231,0,2,547.8000001907349,132,L
2023-04-12T15:03:44Z,tlzx847n,serial-reaction-time,1,P,1,1,40,4231,0,1,399.90000009536743,321,H
2023-04-12T15:03:45Z,tlzx847n,serial-reaction-time,1,R,1,1,41,4231,0,2,407.2999999523163,212,T
2023-04-12T15:03:45Z,tlzx847n,serial-reaction-time,NA,P,1,1,42,4231,0,4,422.90000009536743,124,H
2023-04-12T15:03:45Z,tlzx847n,serial-reaction-time,1,P,1,0,42,4231,0,4,722.8000001907349,124,H
2023-04-12T15:03:47Z,tlzx847n,serial-reaction-time,NA,R,1,1,43,4231,0,1,952.8999998569489,241,L
2023-04-12T15:03:47Z,tlzx847n,serial-reaction-time,1,R,1,0,43,4231,0,1,1351.2999997138977,241,L
2023-04-12T15:03:48Z,tlzx847n,serial-reaction-time,1,P,1,1,44,4231,0,2,553.5,412,H
2023-04-12T15:03:48Z,tlzx847n,serial-reaction-time,1,R,1,1,45,4231,0,1,578.5,121,T
2023-04-12T15:03:49Z,tlzx847n,serial-reaction-time,1,P,1,1,46,4231,0,3,631.4000000953674,213,H
2023-04-12T15:03:50Z,tlzx847n,serial-reaction-time,1,R,1,1,47,4231,0,3,314.60000014305115,133,L
2023-04-12T15:03:50Z,tlzx847n,serial-reaction-time,1,P,1,1,48,4231,0,1,448.2999999523163,331,H
2023-04-12T15:03:51Z,tlzx847n,serial-reaction-time,1,R,1,1,49,4231,0,3,355.30000019073486,313,T
2023-04-12T15:03:51Z,tlzx847n,serial-reaction-time,1,P,1,1,50,4231,0,4,434.40000009536743,134,H
2023-04-12T15:03:52Z,tlzx847n,serial-reaction-time,NA,R,1,1,51,4231,0,2,425.2999999523163,342,L
2023-04-12T15:03:52Z,tlzx847n,serial-reaction-time,1,R,1,0,51,4231,0,2,699,342,L
2023-04-12T15:03:53Z,tlzx847n,serial-reaction-time,1,P,1,1,52,4231,0,2,321.5,422,H
2023-04-12T15:03:53Z,tlzx847n,serial-reaction-time,1,R,1,1,53,4231,0,1,362.09999990463257,221,L
2023-04-12T15:03:54Z,tlzx847n,serial-reaction-time,1,P,1,1,54,4231,0,3,408.59999990463257,213,H
2023-04-12T15:03:54Z,tlzx847n,serial-reaction-time,1,R,1,1,55,4231,0,2,375.2000000476837,132,L
2023-04-12T15:03:55Z,tlzx847n,serial-reaction-time,1,P,1,1,56,4231,0,1,340.09999990463257,321,H
2023-04-12T15:03:55Z,tlzx847n,serial-reaction-time,1,R,1,1,57,4231,0,2,418.90000009536743,212,T
2023-04-12T15:03:56Z,tlzx847n,serial-reaction-time,1,P,1,1,58,4231,0,4,512.7999999523163,124,H
2023-04-12T15:03:56Z,tlzx847n,serial-reaction-time,1,R,1,1,59,4231,0,1,452.7000000476837,241,L
2023-04-12T15:03:57Z,tlzx847n,serial-reaction-time,1,P,1,1,60,4231,0,2,446.39999985694885,412,H
2023-04-12T15:03:57Z,tlzx847n,serial-reaction-time,1,R,1,1,61,4231,0,2,344.60000014305115,122,L
2023-04-12T15:03:58Z,tlzx847n,serial-reaction-time,1,P,1,1,62,4231,0,3,382.5,223,H
2023-04-12T15:03:59Z,tlzx847n,serial-reaction-time,1,R,1,1,63,4231,0,4,543.8999998569489,234,L
2023-04-12T15:03:59Z,tlzx847n,serial-reaction-time,1,P,1,1,64,4231,0,1,527.3000001907349,341,H
2023-04-12T15:04:00Z,tlzx847n,serial-reaction-time,1,R,1,1,65,4231,0,1,317.19999980926514,411,L
2023-04-12T15:04:00Z,tlzx847n,serial-reaction-time,1,P,1,1,66,4231,0,4,402.39999985694885,114,H
2023-04-12T15:04:01Z,tlzx847n,serial-reaction-time,1,R,1,1,67,4231,0,1,392.7999999523163,141,T
2023-04-12T15:04:02Z,tlzx847n,serial-reaction-time,1,P,1,1,68,4231,0,2,522.8999998569489,412,H
2023-04-12T15:04:02Z,tlzx847n,serial-reaction-time,1,R,1,1,69,4231,0,2,422.2999999523163,122,L
2023-04-12T15:04:03Z,tlzx847n,serial-reaction-time,1,P,1,1,70,4231,0,3,393,223,H
2023-04-12T15:04:03Z,tlzx847n,serial-reaction-time,1,R,1,1,71,4231,0,3,313.2000000476837,233,H
2023-04-12T15:04:04Z,tlzx847n,serial-reaction-time,1,P,1,1,72,4231,0,1,659,331,H
2023-04-12T15:04:05Z,tlzx847n,serial-reaction-time,1,R,1,1,73,4231,0,3,631.2999999523163,313,T
2023-04-12T15:04:05Z,tlzx847n,serial-reaction-time,1,P,1,1,74,4231,0,4,434,134,H
2023-04-12T15:04:06Z,tlzx847n,serial-reaction-time,1,R,1,1,75,4231,0,4,356.90000009536743,344,L
2023-04-12T15:04:07Z,tlzx847n,serial-reaction-time,1,P,1,1,76,4231,0,2,667.3999998569489,442,H
2023-04-12T15:04:07Z,tlzx847n,serial-reaction-time,1,R,1,1,77,4231,0,4,486.5,424,T
2023-04-12T15:04:08Z,tlzx847n,serial-reaction-time,1,P,1,1,78,4231,0,3,777.5999999046326,243,H
2023-04-12T15:04:09Z,tlzx847n,serial-reaction-time,1,R,1,1,79,4231,0,4,375.2999999523163,434,T
2023-04-12T15:04:09Z,tlzx847n,serial-reaction-time,1,P,1,1,80,4231,0,1,490.69999980926514,341,H
2023-04-12T15:04:14Z,tlzx847n,html-keyboard-response,NA,NA,NA,NA,NA,NA,NA,NA,NA,NA,NA
2023-04-12T15:04:15Z,tlzx847n,html-keyboard-response,NA,NA,NA,NA,NA,NA,NA,NA,NA,NA,NA
2023-04-12T15:04:16Z,tlzx847n,serial-reaction-time,1,R,2,1,1,4231,0,4,453.5,4,X
2023-04-12T15:04:17Z,tlzx847n,serial-reaction-time,1,P,2,1,2,4231,0,4,364.09999990463257,44,X
2023-04-12T15:04:18Z,tlzx847n,serial-reaction-time,1,R,2,1,3,4231,0,1,420.2000000476837,441,L
2023-04-12T15:04:18Z,tlzx847n,serial-reaction-time,NA,P,2,1,4,4231,0,2,304.90000009536743,412,H
2023-04-12T15:04:18Z,tlzx847n,serial-reaction-time,1,P,2,0,4,4231,0,2,427.10000014305115,412,H
2023-04-12T15:04:19Z,tlzx847n,serial-reaction-time,NA,R,2,1,5,4231,0,4,319.7000000476837,124,H
2023-04-12T15:04:19Z,tlzx847n,serial-reaction-time,1,R,2,0,5,4231,0,4,517.1000001430511,124,H
2023-04-12T15:04:19Z,tlzx847n,serial-reaction-time,1,P,2,1,6,4231,0,3,355.5,243,H
2023-04-12T15:04:20Z,tlzx847n,serial-reaction-time,1,R,2,1,7,4231,0,3,319.2999999523163,433,L
2023-04-12T15:04:20Z,tlzx847n,serial-reaction-time,1,P,2,1,8,4231,0,1,371.5,331,H
2023-04-12T15:04:21Z,tlzx847n,serial-reaction-time,1,R,2,1,9,4231,0,1,355.2000000476837,311,H
2023-04-12T15:04:21Z,tlzx847n,serial-reaction-time,1,P,2,1,10,4231,0,4,378.59999990463257,114,H
2023-04-12T15:04:22Z,tlzx847n,serial-reaction-time,1,R,2,1,11,4231,0,3,340.59999990463257,143,L
2023-04-12T15:04:22Z,tlzx847n,serial-reaction-time,1,P,2,1,12,4231,0,2,309.10000014305115,432,H
2023-04-12T15:04:23Z,tlzx847n,serial-reaction-time,1,R,2,1,13,4231,0,1,306.59999990463257,321,H
2023-04-12T15:04:23Z,tlzx847n,serial-reaction-time,NA,P,2,1,14,4231,0,3,390.2000000476837,213,H
2023-04-12T15:04:24Z,tlzx847n,serial-reaction-time,1,P,2,0,14,4231,0,3,766.2999999523163,213,H
2023-04-12T15:04:24Z,tlzx847n,serial-reaction-time,1,R,2,1,15,4231,0,3,316.5,133,L
2023-04-12T15:04:25Z,tlzx847n,serial-reaction-time,1,P,2,1,16,4231,0,1,405.59999990463257,331,H
2023-04-12T15:04:25Z,tlzx847n,serial-reaction-time,NA,R,2,1,17,4231,0,2,376,312,L
2023-04-12T15:04:25Z,tlzx847n,serial-reaction-time,1,R,2,0,17,4231,0,2,626.2000000476837,312,L
2023-04-12T15:04:26Z,tlzx847n,serial-reaction-time,1,P,2,1,18,4231,0,4,404.19999980926514,124,H
2023-04-12T15:04:26Z,tlzx847n,serial-reaction-time,1,R,2,1,19,4231,0,3,381.5,243,H
2023-04-12T15:04:27Z,tlzx847n,serial-reaction-time,1,P,2,1,20,4231,0,2,458,432,H
2023-04-12T15:04:28Z,tlzx847n,serial-reaction-time,1,R,2,1,21,4231,0,3,366.5,323,T
2023-04-12T15:04:28Z,tlzx847n,serial-reaction-time,1,P,2,1,22,4231,0,3,331.2000000476837,233,H
2023-04-12T15:04:29Z,tlzx847n,serial-reaction-time,1,R,2,1,23,4231,0,4,479,334,L
2023-04-12T15:04:29Z,tlzx847n,serial-reaction-time,1,P,2,1,24,4231,0,1,542.7999999523163,341,H
2023-04-12T15:04:30Z,tlzx847n,serial-reaction-time,1,R,2,1,25,4231,0,2,542.0999999046326,412,H
2023-04-12T15:04:30Z,tlzx847n,serial-reaction-time,1,P,2,1,26,4231,0,4,399.30000019073486,124,H
2023-04-12T15:04:31Z,tlzx847n,serial-reaction-time,1,R,2,1,27,4231,0,3,352,243,H
2023-04-12T15:04:31Z,tlzx847n,serial-reaction-time,1,P,2,1,28,4231,0,2,341.7999999523163,432,H
2023-04-12T15:04:32Z,tlzx847n,serial-reaction-time,1,R,2,1,29,4231,0,1,303,321,H
2023-04-12T15:04:33Z,tlzx847n,serial-reaction-time,NA,P,2,1,30,4231,0,3,566.1000001430511,213,H
2023-04-12T15:04:33Z,tlzx847n,serial-reaction-time,NA,P,2,0,30,4231,0,3,1266.3000001907349,213,H
2023-04-12T15:04:34Z,tlzx847n,serial-reaction-time,1,P,2,0,30,4231,0,3,1701.5000002384186,213,H
2023-04-12T15:04:34Z,tlzx847n,serial-reaction-time,1,R,2,1,31,4231,0,4,571.9000000953674,134,H
2023-04-12T15:04:35Z,tlzx847n,serial-reaction-time,1,P,2,1,32,4231,0,1,398.2999999523163,341,H
2023-04-12T15:04:36Z,tlzx847n,serial-reaction-time,1,R,2,1,33,4231,0,4,415.7999999523163,414,T
2023-04-12T15:04:36Z,tlzx847n,serial-reaction-time,1,P,2,1,34,4231,0,4,377.30000019073486,144,H
2023-04-12T15:04:37Z,tlzx847n,serial-reaction-time,1,R,2,1,35,4231,0,2,574.7000000476837,442,H
2023-04-12T15:04:37Z,tlzx847n,serial-reaction-time,1,P,2,1,36,4231,0,2,335.90000009536743,422,H
2023-04-12T15:04:38Z,tlzx847n,serial-reaction-time,1,R,2,1,37,4231,0,3,380.10000014305115,223,H
2023-04-12T15:04:38Z,tlzx847n,serial-reaction-time,1,P,2,1,38,4231,0,3,325.90000009536743,233,H
2023-04-12T15:04:39Z,tlzx847n,serial-reaction-time,1,R,2,1,39,4231,0,2,413.7000000476837,332,L
2023-04-12T15:04:39Z,tlzx847n,serial-reaction-time,1,P,2,1,40,4231,0,1,413,321,H
2023-04-12T15:04:40Z,tlzx847n,serial-reaction-time,1,R,2,1,41,4231,0,4,393.69999980926514,214,L
2023-04-12T15:04:40Z,tlzx847n,serial-reaction-time,1,P,2,1,42,4231,0,4,392.19999980926514,144,H
2023-04-12T15:04:41Z,tlzx847n,serial-reaction-time,1,R,2,1,43,4231,0,4,360.2000000476837,444,R
2023-04-12T15:04:42Z,tlzx847n,serial-reaction-time,1,P,2,1,44,4231,0,2,534.9000000953674,442,H
2023-04-12T15:04:42Z,tlzx847n,serial-reaction-time,1,R,2,1,45,4231,0,1,436.7999999523163,421,L
2023-04-12T15:04:43Z,tlzx847n,serial-reaction-time,1,P,2,1,46,4231,0,3,538.6999998092651,213,H
2023-04-12T15:04:43Z,tlzx847n,serial-reaction-time,1,R,2,1,47,4231,0,3,339.19999980926514,133,L
2023-04-12T15:04:44Z,tlzx847n,serial-reaction-time,1,P,2,1,48,4231,0,1,404.7000000476837,331,H
2023-04-12T15:04:45Z,tlzx847n,serial-reaction-time,1,R,2,1,49,4231,0,2,481.2000000476837,312,L
2023-04-12T15:04:45Z,tlzx847n,serial-reaction-time,1,P,2,1,50,4231,0,4,429.2999999523163,124,H
2023-04-12T15:04:46Z,tlzx847n,serial-reaction-time,1,R,2,1,51,4231,0,4,490,244,L
2023-04-12T15:04:46Z,tlzx847n,serial-reaction-time,1,P,2,1,52,4231,0,2,405.19999980926514,442,H
2023-04-12T15:04:47Z,tlzx847n,serial-reaction-time,1,R,2,1,53,4231,0,4,404,424,T
2023-04-12T15:04:47Z,tlzx847n,serial-reaction-time,1,P,2,1,54,4231,0,3,480.80000019073486,243,H
2023-04-12T15:04:48Z,tlzx847n,serial-reaction-time,1,R,2,1,55,4231,0,4,379,434,T
2023-04-12T15:04:49Z,tlzx847n,serial-reaction-time,1,P,2,1,56,4231,0,1,429,341,H
2023-04-12T15:04:49Z,tlzx847n,serial-reaction-time,1,R,2,1,57,4231,0,4,371.7000000476837,414,T
2023-04-12T15:04:49Z,tlzx847n,serial-reaction-time,1,P,2,1,58,4231,0,4,308.7999999523163,144,H
2023-04-12T15:04:50Z,tlzx847n,serial-reaction-time,1,R,2,1,59,4231,0,2,459.69999980926514,442,H
2023-04-12T15:04:51Z,tlzx847n,serial-reaction-time,1,P,2,1,60,4231,0,2,275.5,422,H
2023-04-12T15:04:51Z,tlzx847n,serial-reaction-time,1,R,2,1,61,4231,0,1,424.2999999523163,221,L
2023-04-12T15:04:52Z,tlzx847n,serial-reaction-time,1,P,2,1,62,4231,0,3,524.1000001430511,213,H
2023-04-12T15:04:52Z,tlzx847n,serial-reaction-time,1,R,2,1,63,4231,0,3,358.2999999523163,133,L
2023-04-12T15:04:53Z,tlzx847n,serial-reaction-time,1,P,2,1,64,4231,0,1,477.10000014305115,331,H
2023-04-12T15:04:53Z,tlzx847n,serial-reaction-time,1,R,2,1,65,4231,0,3,356.19999980926514,313,T
2023-04-12T15:04:54Z,tlzx847n,serial-reaction-time,1,P,2,1,66,4231,0,4,361.40000009536743,134,H
2023-04-12T15:04:54Z,tlzx847n,serial-reaction-time,1,R,2,1,67,4231,0,2,371.09999990463257,342,L
2023-04-12T15:04:55Z,tlzx847n,serial-reaction-time,1,P,2,1,68,4231,0,2,308.30000019073486,422,H
2023-04-12T15:04:55Z,tlzx847n,serial-reaction-time,1,R,2,1,69,4231,0,3,395.2000000476837,223,H
2023-04-12T15:04:56Z,tlzx847n,serial-reaction-time,1,P,2,1,70,4231,0,3,284.5,233,H
2023-04-12T15:04:56Z,tlzx847n,serial-reaction-time,1,R,2,1,71,4231,0,2,490.40000009536743,332,L
2023-04-12T15:04:57Z,tlzx847n,serial-reaction-time,1,P,2,1,72,4231,0,1,413,321,H
2023-04-12T15:04:57Z,tlzx847n,serial-reaction-time,1,R,2,1,73,4231,0,2,339.2999999523163,212,T
2023-04-12T15:04:58Z,tlzx847n,serial-reaction-time,1,P,2,1,74,4231,0,4,457.09999990463257,124,H
2023-04-12T15:04:59Z,tlzx847n,serial-reaction-time,1,R,2,1,75,4231,0,2,355.90000009536743,242,T
2023-04-12T15:04:59Z,tlzx847n,serial-reaction-time,1,P,2,1,76,4231,0,2,399,422,H
2023-04-12T15:05:00Z,tlzx847n,serial-reaction-time,1,R,2,1,77,4231,0,2,324.7999999523163,222,R
2023-04-12T15:05:00Z,tlzx847n,serial-reaction-time,1,P,2,1,78,4231,0,3,450.2999999523163,223,H
2023-04-12T15:05:01Z,tlzx847n,serial-reaction-time,1,R,2,1,79,4231,0,3,249.20000004768372,233,H
2023-04-12T15:05:01Z,tlzx847n,serial-reaction-time,1,P,2,1,80,4231,0,1,373,331,H
2023-04-12T15:05:06Z,tlzx847n,html-keyboard-response,NA,NA,NA,NA,NA,NA,NA,NA,NA,NA,NA
2023-04-12T15:05:07Z,tlzx847n,html-keyboard-response,NA,NA,NA,NA,NA,NA,NA,NA,NA,NA,NA
2023-04-12T15:05:08Z,tlzx847n,serial-reaction-time,1,R,3,1,1,4231,0,4,416.90000009536743,4,X
2023-04-12T15:05:09Z,tlzx847n,serial-reaction-time,1,P,3,1,2,4231,0,4,321.5,44,X
2023-04-12T15:05:09Z,tlzx847n,serial-reaction-time,1,R,3,1,3,4231,0,1,464.69999980926514,441,L
2023-04-12T15:05:10Z,tlzx847n,serial-reaction-time,1,P,3,1,4,4231,0,2,331.90000009536743,412,H
2023-04-12T15:05:10Z,tlzx847n,serial-reaction-time,1,R,3,1,5,4231,0,2,302.90000009536743,122,L
2023-04-12T15:05:11Z,tlzx847n,serial-reaction-time,1,P,3,1,6,4231,0,3,315.30000019073486,223,H
2023-04-12T15:05:11Z,tlzx847n,serial-reaction-time,NA,R,3,1,7,4231,0,1,227,231,L
2023-04-12T15:05:11Z,tlzx847n,serial-reaction-time,1,R,3,0,7,4231,0,1,519.2000000476837,231,L
2023-04-12T15:05:12Z,tlzx847n,serial-reaction-time,1,P,3,1,8,4231,0,1,287.7999999523163,311,H
2023-04-12T15:05:12Z,tlzx847n,serial-reaction-time,1,R,3,1,9,4231,0,1,297.60000014305115,111,R
2023-04-12T15:05:13Z,tlzx847n,serial-reaction-time,1,P,3,1,10,4231,0,4,367.89999985694885,114,H
2023-04-12T15:05:13Z,tlzx847n,serial-reaction-time,NA,R,3,1,11,4231,0,1,356.09999990463257,141,T
2023-04-12T15:05:14Z,tlzx847n,serial-reaction-time,1,R,3,0,11,4231,0,1,689.2999997138977,141,T
2023-04-12T15:05:14Z,tlzx847n,serial-reaction-time,1,P,3,1,12,4231,0,2,398.2000000476837,412,H
2023-04-12T15:05:15Z,tlzx847n,serial-reaction-time,1,R,3,1,13,4231,0,1,485.40000009536743,121,T
2023-04-12T15:05:15Z,tlzx847n,serial-reaction-time,1,P,3,1,14,4231,0,3,418.7000000476837,213,H
2023-04-12T15:05:16Z,tlzx847n,serial-reaction-time,1,R,3,1,15,4231,0,3,304,133,L
2023-04-12T15:05:16Z,tlzx847n,serial-reaction-time,1,P,3,1,16,4231,0,1,387.2999999523163,331,H
2023-04-12T15:05:17Z,tlzx847n,serial-reaction-time,NA,R,3,1,17,4231,0,2,443.2999999523163,312,L
2023-04-12T15:05:17Z,tlzx847n,serial-reaction-time,1,R,3,0,17,4231,0,2,582.2000000476837,312,L
2023-04-12T15:05:18Z,tlzx847n,serial-reaction-time,1,P,3,1,18,4231,0,4,370.2000000476837,124,H
2023-04-12T15:05:18Z,tlzx847n,serial-reaction-time,1,R,3,1,19,4231,0,1,473.2000000476837,241,L
2023-04-12T15:05:19Z,tlzx847n,serial-reaction-time,1,P,3,1,20,4231,0,2,431.90000009536743,412,H
2023-04-12T15:05:19Z,tlzx847n,serial-reaction-time,1,R,3,1,21,4231,0,3,346.7999999523163,123,L
2023-04-12T15:05:20Z,tlzx847n,serial-reaction-time,1,P,3,1,22,4231,0,3,390.30000019073486,233,H
2023-04-12T15:05:20Z,tlzx847n,serial-reaction-time,1,R,3,1,23,4231,0,3,329.59999990463257,333,R
2023-04-12T15:05:21Z,tlzx847n,serial-reaction-time,1,P,3,1,24,4231,0,1,330.59999990463257,331,H
2023-04-12T15:05:21Z,tlzx847n,serial-reaction-time,1,R,3,1,25,4231,0,1,286,311,H
2023-04-12T15:05:22Z,tlzx847n,serial-reaction-time,1,P,3,1,26,4231,0,4,390.60000014305115,114,H
2023-04-12T15:05:22Z,tlzx847n,serial-reaction-time,1,R,3,1,27,4231,0,3,412,143,L
2023-04-12T15:05:23Z,tlzx847n,serial-reaction-time,1,P,3,1,28,4231,0,2,331.5,432,H
2023-04-12T15:05:23Z,tlzx847n,serial-reaction-time,1,R,3,1,29,4231,0,3,454.60000014305115,323,T
2023-04-12T15:05:24Z,tlzx847n,serial-reaction-time,1,P,3,1,30,4231,0,3,441.60000014305115,233,H
2023-04-12T15:05:24Z,tlzx847n,serial-reaction-time,1,R,3,1,31,4231,0,4,370.5,334,L
2023-04-12T15:05:25Z,tlzx847n,serial-reaction-time,1,P,3,1,32,4231,0,1,380.5,341,H
2023-04-12T15:05:25Z,tlzx847n,serial-reaction-time,1,R,3,1,33,4231,0,4,339.7000000476837,414,T
2023-04-12T15:05:26Z,tlzx847n,serial-reaction-time,1,P,3,1,34,4231,0,4,342.7000000476837,144,H
2023-04-12T15:05:26Z,tlzx847n,serial-reaction-time,NA,R,3,1,35,4231,0,3,383.09999990463257,443,L
2023-04-12T15:05:27Z,tlzx847n,serial-reaction-time,1,R,3,0,35,4231,0,3,738.2999999523163,443,L
2023-04-12T15:05:27Z,tlzx847n,serial-reaction-time,1,P,3,1,36,4231,0,2,386.40000009536743,432,H
2023-04-12T15:05:28Z,tlzx847n,serial-reaction-time,1,R,3,1,37,4231,0,3,567,323,T
2023-04-12T15:05:28Z,tlzx847n,serial-reaction-time,1,P,3,1,38,4231,0,3,362.60000014305115,233,H
2023-04-12T15:05:29Z,tlzx847n,serial-reaction-time,1,R,3,1,39,4231,0,4,364.2999999523163,334,L
2023-04-12T15:05:29Z,tlzx847n,serial-reaction-time,1,P,3,1,40,4231,0,1,335.60000014305115,341,H
2023-04-12T15:05:30Z,tlzx847n,serial-reaction-time,1,R,3,1,41,4231,0,2,390.7999999523163,412,H
2023-04-12T15:05:30Z,tlzx847n,serial-reaction-time,1,P,3,1,42,4231,0,4,415.90000009536743,124,H
2023-04-12T15:05:31Z,tlzx847n,serial-reaction-time,1,R,3,1,43,4231,0,1,371.5,241,L
2023-04-12T15:05:32Z,tlzx847n,serial-reaction-time,1,P,3,1,44,4231,0,2,443,412,H
2023-04-12T15:05:32Z,tlzx847n,serial-reaction-time,1,R,3,1,45,4231,0,4,380.90000009536743,124,H
2023-04-12T15:05:33Z,tlzx847n,serial-reaction-time,1,P,3,1,46,4231,0,3,472.89999985694885,243,H
2023-04-12T15:05:33Z,tlzx847n,serial-reaction-time,1,R,3,1,47,4231,0,2,348.10000014305115,432,H
2023-04-12T15:05:34Z,tlzx847n,serial-reaction-time,1,P,3,1,48,4231,0,1,339.2999999523163,321,H
2023-04-12T15:05:35Z,tlzx847n,serial-reaction-time,1,R,3,1,49,4231,0,3,954.1000001430511,213,H
2023-04-12T15:05:35Z,tlzx847n,serial-reaction-time,1,P,3,1,50,4231,0,4,435.39999985694885,134,H
2023-04-12T15:05:36Z,tlzx847n,serial-reaction-time,NA,R,3,1,51,4231,0,3,356.40000009536743,343,T
2023-04-12T15:05:36Z,tlzx847n,serial-reaction-time,1,R,3,0,51,4231,0,3,388.80000019073486,343,T
2023-04-12T15:05:36Z,tlzx847n,serial-reaction-time,1,P,3,1,52,4231,0,2,420.2999999523163,432,H
2023-04-12T15:05:37Z,tlzx847n,serial-reaction-time,1,R,3,1,53,4231,0,1,299.7999999523163,321,H
2023-04-12T15:05:37Z,tlzx847n,serial-reaction-time,1,P,3,1,54,4231,0,3,447.2000000476837,213,H
2023-04-12T15:05:38Z,tlzx847n,serial-reaction-time,1,R,3,1,55,4231,0,1,329.2999999523163,131,T
2023-04-12T15:05:38Z,tlzx847n,serial-reaction-time,1,P,3,1,56,4231,0,1,380.7999999523163,311,H
2023-04-12T15:05:39Z,tlzx847n,serial-reaction-time,1,R,3,1,57,4231,0,2,599.5,112,L
2023-04-12T15:05:40Z,tlzx847n,serial-reaction-time,1,P,3,1,58,4231,0,4,377,124,H
2023-04-12T15:05:40Z,tlzx847n,serial-reaction-time,1,R,3,1,59,4231,0,2,483.2999999523163,242,T
2023-04-12T15:05:41Z,tlzx847n,serial-reaction-time,1,P,3,1,60,4231,0,2,289.5,422,H
2023-04-12T15:05:41Z,tlzx847n,serial-reaction-time,1,R,3,1,61,4231,0,3,354.69999980926514,223,H
2023-04-12T15:05:42Z,tlzx847n,serial-reaction-time,1,P,3,1,62,4231,0,3,492,233,H
2023-04-12T15:05:43Z,tlzx847n,serial-reaction-time,1,R,3,1,63,4231,0,1,531.9000000953674,331,H
2023-04-12T15:05:43Z,tlzx847n,serial-reaction-time,1,P,3,1,64,4231,0,1,315,311,H
2023-04-12T15:05:44Z,tlzx847n,serial-reaction-time,1,R,3,1,65,4231,0,4,375.09999990463257,114,H
2023-04-12T15:05:44Z,tlzx847n,serial-reaction-time,1,P,3,1,66,4231,0,4,309.2999999523163,144,H
2023-04-12T15:05:45Z,tlzx847n,serial-reaction-time,1,R,3,1,67,4231,0,4,736.6000001430511,444,R
2023-04-12T15:05:45Z,tlzx847n,serial-reaction-time,1,P,3,1,68,4231,0,2,434.60000014305115,442,H
2023-04-12T15:05:46Z,tlzx847n,serial-reaction-time,1,R,3,1,69,4231,0,1,420.59999990463257,421,L
2023-04-12T15:05:47Z,tlzx847n,serial-reaction-time,1,P,3,1,70,4231,0,3,406.60000014305115,213,H
2023-04-12T15:05:47Z,tlzx847n,serial-reaction-time,1,R,3,1,71,4231,0,2,402.7999999523163,132,L
2023-04-12T15:05:48Z,tlzx847n,serial-reaction-time,1,P,3,1,72,4231,0,1,318.2999999523163,321,H
2023-04-12T15:05:48Z,tlzx847n,serial-reaction-time,NA,R,3,1,73,4231,0,3,378.10000014305115,213,H
2023-04-12T15:05:49Z,tlzx847n,serial-reaction-time,1,R,3,0,73,4231,0,3,1039.7000000476835,213,H
2023-04-12T15:05:49Z,tlzx847n,serial-reaction-time,1,P,3,1,74,4231,0,4,432.89999985694885,134,H
2023-04-12T15:05:50Z,tlzx847n,serial-reaction-time,1,R,3,1,75,4231,0,2,526.7999999523163,342,L
2023-04-12T15:05:53Z,tlzx847n,serial-reaction-time,1,P,3,1,76,4231,0,2,3126.7000000476837,422,H
2023-04-12T15:05:54Z,tlzx847n,serial-reaction-time,1,R,3,1,77,4231,0,4,385.90000009536743,224,L
2023-04-12T15:05:55Z,tlzx847n,serial-reaction-time,1,P,3,1,78,4231,0,3,638.0999999046326,243,H
2023-04-12T15:05:55Z,tlzx847n,serial-reaction-time,1,R,3,1,79,4231,0,2,349.59999990463257,432,H
2023-04-12T15:05:55Z,tlzx847n,serial-reaction-time,1,P,3,1,80,4231,0,1,301.2000000476837,321,H
2023-04-12T15:06:00Z,tlzx847n,html-keyboard-response,NA,NA,NA,NA,NA,NA,NA,NA,NA,NA,NA
2023-04-12T15:06:04Z,tlzx847n,html-keyboard-response,NA,NA,NA,NA,NA,NA,NA,NA,NA,NA,NA
2023-04-12T15:06:07Z,tlzx847n,serial-reaction-time,1,R,4,1,1,4231,0,3,1411.7999999523165,3,X
2023-04-12T15:06:07Z,tlzx847n,serial-reaction-time,1,P,4,1,2,4231,0,4,362.19999980926514,34,X
2023-04-12T15:06:08Z,tlzx847n,serial-reaction-time,1,R,4,1,3,4231,0,2,335.89999985694885,342,L
2023-04-12T15:06:08Z,tlzx847n,serial-reaction-time,1,P,4,1,4,4231,0,2,301.2999999523163,422,H
2023-04-12T15:06:08Z,tlzx847n,serial-reaction-time,1,R,4,1,5,4231,0,2,294,222,R
2023-04-12T15:06:09Z,tlzx847n,serial-reaction-time,1,P,4,1,6,4231,0,3,357.90000009536743,223,H
2023-04-12T15:06:09Z,tlzx847n,serial-reaction-time,1,R,4,1,7,4231,0,1,374.7000000476837,231,L
2023-04-12T15:06:10Z,tlzx847n,serial-reaction-time,1,P,4,1,8,4231,0,1,288.7999999523163,311,H
2023-04-12T15:06:10Z,tlzx847n,serial-reaction-time,1,R,4,1,9,4231,0,3,366.60000014305115,113,L
2023-04-12T15:06:11Z,tlzx847n,serial-reaction-time,1,P,4,1,10,4231,0,4,319.5,134,H
2023-04-12T15:06:12Z,tlzx847n,serial-reaction-time,1,R,4,1,11,4231,0,3,616.0999999046326,343,T
2023-04-12T15:06:12Z,tlzx847n,serial-reaction-time,1,P,4,1,12,4231,0,2,290.59999990463257,432,H
2023-04-12T15:06:13Z,tlzx847n,serial-reaction-time,1,R,4,1,13,4231,0,1,328.80000019073486,321,H
2023-04-12T15:06:13Z,tlzx847n,serial-reaction-time,1,P,4,1,14,4231,0,3,315,213,H
2023-04-12T15:06:13Z,tlzx847n,serial-reaction-time,1,R,4,1,15,4231,0,4,289.59999990463257,134,H
2023-04-12T15:06:14Z,tlzx847n,serial-reaction-time,NA,P,4,1,16,4231,0,1,364,341,H
2023-04-12T15:06:14Z,tlzx847n,serial-reaction-time,1,P,4,0,16,4231,0,1,676.0999999046326,341,H
2023-04-12T15:06:15Z,tlzx847n,serial-reaction-time,1,R,4,1,17,4231,0,3,335.2000000476837,413,L
2023-04-12T15:06:15Z,tlzx847n,serial-reaction-time,1,P,4,1,18,4231,0,4,325.2999999523163,134,H
2023-04-12T15:06:16Z,tlzx847n,serial-reaction-time,1,R,4,1,19,4231,0,4,383.7000000476837,344,L
2023-04-12T15:06:16Z,tlzx847n,serial-reaction-time,1,P,4,1,20,4231,0,2,416.90000009536743,442,H
2023-04-12T15:06:17Z,tlzx847n,serial-reaction-time,1,R,4,1,21,4231,0,3,296,423,L
2023-04-12T15:06:17Z,tlzx847n,serial-reaction-time,1,P,4,1,22,4231,0,3,336.7999999523163,233,H
2023-04-12T15:06:18Z,tlzx847n,serial-reaction-time,1,R,4,1,23,4231,0,3,286.2999999523163,333,R
2023-04-12T15:06:18Z,tlzx847n,serial-reaction-time,1,P,4,1,24,4231,0,1,334.5,331,H
2023-04-12T15:06:19Z,tlzx847n,serial-reaction-time,1,R,4,1,25,4231,0,3,346.2000000476837,313,T
2023-04-12T15:06:19Z,tlzx847n,serial-reaction-time,NA,P,4,1,26,4231,0,4,309.60000014305115,134,H
2023-04-12T15:06:19Z,tlzx847n,serial-reaction-time,1,P,4,0,26,4231,0,4,477.7000002861023,134,H
2023-04-12T15:06:20Z,tlzx847n,serial-reaction-time,1,R,4,1,27,4231,0,3,377.7999999523163,343,T
2023-04-12T15:06:20Z,tlzx847n,serial-reaction-time,1,P,4,1,28,4231,0,2,405.7000000476837,432,H
2023-04-12T15:06:23Z,tlzx847n,serial-reaction-time,1,R,4,1,29,4231,0,4,2920.2999999523163,324,L
2023-04-12T15:06:24Z,tlzx847n,serial-reaction-time,1,P,4,1,30,4231,0,3,872.5,243,H
2023-04-12T15:06:25Z,tlzx847n,serial-reaction-time,1,R,4,1,31,4231,0,1,510.7000000476837,431,L
2023-04-12T15:06:25Z,tlzx847n,serial-reaction-time,1,P,4,1,32,4231,0,1,311.09999990463257,311,H
2023-04-12T15:06:26Z,tlzx847n,serial-reaction-time,1,R,4,1,33,4231,0,4,449.69999980926514,114,H
2023-04-12T15:06:26Z,tlzx847n,serial-reaction-time,1,P,4,1,34,4231,0,4,236,144,H
2023-04-12T15:06:27Z,tlzx847n,serial-reaction-time,1,R,4,1,35,4231,0,2,511.39999985694885,442,H
2023-04-12T15:06:28Z,tlzx847n,serial-reaction-time,1,P,4,1,36,4231,0,2,709.2000000476837,422,H
2023-04-12T15:06:28Z,tlzx847n,serial-reaction-time,1,R,4,1,37,4231,0,3,351.5,223,H
2023-04-12T15:06:29Z,tlzx847n,serial-reaction-time,1,P,4,1,38,4231,0,3,282.60000014305115,233,H
2023-04-12T15:06:29Z,tlzx847n,serial-reaction-time,1,R,4,1,39,4231,0,4,337.30000019073486,334,L
2023-04-12T15:06:30Z,tlzx847n,serial-reaction-time,1,P,4,1,40,4231,0,1,392.2999999523163,341,H
2023-04-12T15:06:30Z,tlzx847n,serial-reaction-time,1,R,4,1,41,4231,0,4,344.90000009536743,414,T
2023-04-12T15:06:31Z,tlzx847n,serial-reaction-time,1,P,4,1,42,4231,0,4,305.7999999523163,144,H
2023-04-12T15:06:31Z,tlzx847n,serial-reaction-time,NA,R,4,1,43,4231,0,3,353.80000019073486,443,L
2023-04-12T15:06:31Z,tlzx847n,serial-reaction-time,1,R,4,0,43,4231,0,3,492.5000002384186,443,L
2023-04-12T15:06:32Z,tlzx847n,serial-reaction-time,1,P,4,1,44,4231,0,2,336.2000000476837,432,H
2023-04-12T15:06:32Z,tlzx847n,serial-reaction-time,1,R,4,1,45,4231,0,1,279.60000014305115,321,H
2023-04-12T15:06:33Z,tlzx847n,serial-reaction-time,1,P,4,1,46,4231,0,3,314.60000014305115,213,H
2023-04-12T15:06:33Z,tlzx847n,serial-reaction-time,1,R,4,1,47,4231,0,4,320.5,134,H
2023-04-12T15:06:34Z,tlzx847n,serial-reaction-time,1,P,4,1,48,4231,0,1,456.5,341,H
2023-04-12T15:06:34Z,tlzx847n,serial-reaction-time,1,R,4,1,49,4231,0,2,495.59999990463257,412,H
2023-04-12T15:06:35Z,tlzx847n,serial-reaction-time,1,P,4,1,50,4231,0,4,407.5,124,H
2023-04-12T15:06:36Z,tlzx847n,serial-reaction-time,1,R,4,1,51,4231,0,3,448.2000000476837,243,H
2023-04-12T15:06:36Z,tlzx847n,serial-reaction-time,1,P,4,1,52,4231,0,2,332.59999990463257,432,H
2023-04-12T15:06:37Z,tlzx847n,serial-reaction-time,1,R,4,1,53,4231,0,1,285.59999990463257,321,H
2023-04-12T15:06:37Z,tlzx847n,serial-reaction-time,1,P,4,1,54,4231,0,3,404.2999999523163,213,H
2023-04-12T15:06:38Z,tlzx847n,serial-reaction-time,1,R,4,1,55,4231,0,2,361.2000000476837,132,L
2023-04-12T15:06:38Z,tlzx847n,serial-reaction-time,1,P,4,1,56,4231,0,1,357.7000000476837,321,H
2023-04-12T15:06:39Z,tlzx847n,serial-reaction-time,1,R,4,1,57,4231,0,4,361.2000000476837,214,L
2023-04-12T15:06:39Z,tlzx847n,serial-reaction-time,1,P,4,1,58,4231,0,4,453.39999985694885,144,H
2023-04-12T15:06:40Z,tlzx847n,serial-reaction-time,NA,R,4,1,59,4231,0,1,378.90000009536743,441,L
2023-04-12T15:06:40Z,tlzx847n,serial-reaction-time,1,R,4,0,59,4231,0,1,585.7999999523163,441,L
2023-04-12T15:06:41Z,tlzx847n,serial-reaction-time,1,P,4,1,60,4231,0,2,455.09999990463257,412,H
2023-04-12T15:06:41Z,tlzx847n,serial-reaction-time,1,R,4,1,61,4231,0,2,344.7999999523163,122,L
2023-04-12T15:06:41Z,tlzx847n,serial-reaction-time,1,P,4,1,62,4231,0,3,350.69999980926514,223,H
2023-04-12T15:06:42Z,tlzx847n,serial-reaction-time,1,R,4,1,63,4231,0,2,409.5,232,T
2023-04-12T15:06:43Z,tlzx847n,serial-reaction-time,1,P,4,1,64,4231,0,1,442.7999999523163,321,H
2023-04-12T15:06:43Z,tlzx847n,serial-reaction-time,1,R,4,1,65,4231,0,1,309.5,211,L
2023-04-12T15:06:44Z,tlzx847n,serial-reaction-time,1,P,4,1,66,4231,0,4,421.19999980926514,114,H
2023-04-12T15:06:44Z,tlzx847n,serial-reaction-time,NA,R,4,1,67,4231,0,2,651.7000000476837,142,L
2023-04-12T15:06:45Z,tlzx847n,serial-reaction-time,1,R,4,0,67,4231,0,2,1011.1000001430511,142,L
2023-04-12T15:06:45Z,tlzx847n,serial-reaction-time,1,P,4,1,68,4231,0,2,294.09999990463257,422,H
2023-04-12T15:06:46Z,tlzx847n,serial-reaction-time,1,R,4,1,69,4231,0,3,435.59999990463257,223,H
2023-04-12T15:06:46Z,tlzx847n,serial-reaction-time,1,P,4,1,70,4231,0,3,304.7000000476837,233,H
2023-04-12T15:06:47Z,tlzx847n,serial-reaction-time,1,R,4,1,71,4231,0,1,472.5,331,H
2023-04-12T15:06:47Z,tlzx847n,serial-reaction-time,1,P,4,1,72,4231,0,1,419.7999999523163,311,H
2023-04-12T15:06:48Z,tlzx847n,serial-reaction-time,1,R,4,1,73,4231,0,2,536.3000001907349,112,L
2023-04-12T15:06:49Z,tlzx847n,serial-reaction-time,NA,P,4,1,74,4231,0,4,382.60000014305115,124,H
2023-04-12T15:06:49Z,tlzx847n,serial-reaction-time,1,P,4,0,74,4231,0,4,479.90000009536743,124,H
2023-04-12T15:06:49Z,tlzx847n,serial-reaction-time,1,R,4,1,75,4231,0,4,305.59999990463257,244,L
2023-04-12T15:06:50Z,tlzx847n,serial-reaction-time,1,P,4,1,76,4231,0,2,375,442,H
2023-04-12T15:06:50Z,tlzx847n,serial-reaction-time,1,R,4,1,77,4231,0,2,291.30000019073486,422,H
2023-04-12T15:06:51Z,tlzx847n,serial-reaction-time,1,P,4,1,78,4231,0,3,427.09999990463257,223,H
2023-04-12T15:06:51Z,tlzx847n,serial-reaction-time,1,R,4,1,79,4231,0,3,129.30000019073486,233,H
2023-04-12T15:06:52Z,tlzx847n,serial-reaction-time,1,P,4,1,80,4231,0,1,474.90000009536743,331,H
2023-04-12T15:06:57Z,tlzx847n,html-keyboard-response,NA,NA,NA,NA,NA,NA,NA,NA,NA,NA,NA
2023-04-12T15:07:00Z,tlzx847n,html-keyboard-response,NA,NA,NA,NA,NA,NA,NA,NA,NA,NA,NA
2023-04-12T15:07:01Z,tlzx847n,serial-reaction-time,1,R,5,1,1,4231,0,1,552.2999999523163,1,X
2023-04-12T15:07:02Z,tlzx847n,serial-reaction-time,1,P,5,1,2,4231,0,4,321.09999990463257,14,X
2023-04-12T15:07:02Z,tlzx847n,serial-reaction-time,NA,R,5,1,3,4231,0,1,324.59999990463257,141,T
2023-04-12T15:07:03Z,tlzx847n,serial-reaction-time,1,R,5,0,3,4231,0,1,597.7000000476837,141,T
2023-04-12T15:07:03Z,tlzx847n,serial-reaction-time,1,P,5,1,4,4231,0,2,611.7999999523163,412,H
2023-04-12T15:07:04Z,tlzx847n,serial-reaction-time,1,R,5,1,5,4231,0,2,339.7000000476837,122,L
2023-04-12T15:07:04Z,tlzx847n,serial-reaction-time,1,P,5,1,6,4231,0,3,334.7000000476837,223,H
2023-04-12T15:07:05Z,tlzx847n,serial-reaction-time,1,R,5,1,7,4231,0,4,395,234,L
2023-04-12T15:07:05Z,tlzx847n,serial-reaction-time,1,P,5,1,8,4231,0,1,387.2999999523163,341,H
2023-04-12T15:07:06Z,tlzx847n,serial-reaction-time,1,R,5,1,9,4231,0,2,466,412,H
2023-04-12T15:07:07Z,tlzx847n,serial-reaction-time,1,P,5,1,10,4231,0,4,472.40000009536743,124,H
2023-04-12T15:07:07Z,tlzx847n,serial-reaction-time,1,R,5,1,11,4231,0,2,354.40000009536743,242,T
2023-04-12T15:07:08Z,tlzx847n,serial-reaction-time,1,P,5,1,12,4231,0,2,445.2999999523163,422,H
2023-04-12T15:07:08Z,tlzx847n,serial-reaction-time,1,R,5,1,13,4231,0,4,431.7000000476837,224,L
2023-04-12T15:07:09Z,tlzx847n,serial-reaction-time,NA,P,5,1,14,4231,0,3,442.59999990463257,243,H
2023-04-12T15:07:09Z,tlzx847n,serial-reaction-time,1,P,5,0,14,4231,0,3,711.5999999046326,243,H
2023-04-12T15:07:10Z,tlzx847n,serial-reaction-time,1,R,5,1,15,4231,0,3,335.2999999523163,433,L
2023-04-12T15:07:10Z,tlzx847n,serial-reaction-time,1,P,5,1,16,4231,0,1,322.2999999523163,331,H
2023-04-12T15:07:11Z,tlzx847n,serial-reaction-time,1,R,5,1,17,4231,0,1,266.09999990463257,311,H
2023-04-12T15:07:11Z,tlzx847n,serial-reaction-time,1,P,5,1,18,4231,0,4,433.30000019073486,114,H
2023-04-12T15:07:12Z,tlzx847n,serial-reaction-time,1,R,5,1,19,4231,0,1,399.80000019073486,141,T
2023-04-12T15:07:12Z,tlzx847n,serial-reaction-time,NA,P,5,1,20,4231,0,2,399.40000009536743,412,H
2023-04-12T15:07:12Z,tlzx847n,serial-reaction-time,1,P,5,0,20,4231,0,2,538.9000000953674,412,H
2023-04-12T15:07:13Z,tlzx847n,serial-reaction-time,1,R,5,1,21,4231,0,2,319.2999999523163,122,L
2023-04-12T15:07:13Z,tlzx847n,serial-reaction-time,1,P,5,1,22,4231,0,3,379.7999999523163,223,H
2023-04-12T15:07:14Z,tlzx847n,serial-reaction-time,NA,R,5,1,23,4231,0,2,396.69999980926514,232,T
2023-04-12T15:07:14Z,tlzx847n,serial-reaction-time,1,R,5,0,23,4231,0,2,662,232,T
2023-04-12T15:07:15Z,tlzx847n,serial-reaction-time,1,P,5,1,24,4231,0,1,443.10000014305115,321,H
2023-04-12T15:07:15Z,tlzx847n,serial-reaction-time,1,R,5,1,25,4231,0,1,302.59999990463257,211,L
2023-04-12T15:07:16Z,tlzx847n,serial-reaction-time,1,P,5,1,26,4231,0,4,343.89999985694885,114,H
2023-04-12T15:07:16Z,tlzx847n,serial-reaction-time,1,R,5,1,27,4231,0,4,495.7999999523163,144,H
2023-04-12T15:07:17Z,tlzx847n,serial-reaction-time,1,P,5,1,28,4231,0,2,370,442,H
2023-04-12T15:07:17Z,tlzx847n,serial-reaction-time,1,R,5,1,29,4231,0,3,336.2000000476837,423,L
2023-04-12T15:07:18Z,tlzx847n,serial-reaction-time,1,P,5,1,30,4231,0,3,379.90000009536743,233,H
2023-04-12T15:07:18Z,tlzx847n,serial-reaction-time,1,R,5,1,31,4231,0,2,395.59999990463257,332,L
2023-04-12T15:07:19Z,tlzx847n,serial-reaction-time,1,P,5,1,32,4231,0,1,414.90000009536743,321,H
2023-04-12T15:07:19Z,tlzx847n,serial-reaction-time,1,R,5,1,33,4231,0,4,366.5,214,L
2023-04-12T15:07:20Z,tlzx847n,serial-reaction-time,1,P,5,1,34,4231,0,4,366.5,144,H
2023-04-12T15:07:20Z,tlzx847n,serial-reaction-time,1,R,5,1,35,4231,0,2,327.40000009536743,442,H
2023-04-12T15:07:21Z,tlzx847n,serial-reaction-time,1,P,5,1,36,4231,0,2,252.79999995231628,422,H
2023-04-12T15:07:21Z,tlzx847n,serial-reaction-time,1,R,5,1,37,4231,0,2,292.89999985694885,222,R
2023-04-12T15:07:22Z,tlzx847n,serial-reaction-time,1,P,5,1,38,4231,0,3,412.10000014305115,223,H
2023-04-12T15:07:22Z,tlzx847n,serial-reaction-time,NA,R,5,1,39,4231,0,2,199.39999985694885,232,T
2023-04-12T15:07:22Z,tlzx847n,serial-reaction-time,1,R,5,0,39,4231,0,2,514.2999999523163,232,T
2023-04-12T15:07:23Z,tlzx847n,serial-reaction-time,1,P,5,1,40,4231,0,1,337.2000000476837,321,H
2023-04-12T15:07:23Z,tlzx847n,serial-reaction-time,1,R,5,1,41,4231,0,2,317.09999990463257,212,T
2023-04-12T15:07:24Z,tlzx847n,serial-reaction-time,1,P,5,1,42,4231,0,4,356.2000000476837,124,H
2023-04-12T15:07:24Z,tlzx847n,serial-reaction-time,1,R,5,1,43,4231,0,2,415.2999999523163,242,T
2023-04-12T15:07:25Z,tlzx847n,serial-reaction-time,1,P,5,1,44,4231,0,2,332.5,422,H
2023-04-12T15:07:25Z,tlzx847n,serial-reaction-time,1,R,5,1,45,4231,0,1,374.2999999523163,221,L
2023-04-12T15:07:26Z,tlzx847n,serial-reaction-time,1,P,5,1,46,4231,0,3,351.7000000476837,213,H
2023-04-12T15:07:26Z,tlzx847n,serial-reaction-time,1,R,5,1,47,4231,0,2,367.59999990463257,132,L
2023-04-12T15:07:27Z,tlzx847n,serial-reaction-time,1,P,5,1,48,4231,0,1,368.59999990463257,321,H
2023-04-12T15:07:27Z,tlzx847n,serial-reaction-time,1,R,5,1,49,4231,0,2,331.5,212,T
2023-04-12T15:07:28Z,tlzx847n,serial-reaction-time,1,P,5,1,50,4231,0,4,356.30000019073486,124,H
2023-04-12T15:07:28Z,tlzx847n,serial-reaction-time,1,R,5,1,51,4231,0,3,428.60000014305115,243,H
2023-04-12T15:07:29Z,tlzx847n,serial-reaction-time,1,P,5,1,52,4231,0,2,309.2000000476837,432,H
2023-04-12T15:07:29Z,tlzx847n,serial-reaction-time,1,R,5,1,53,4231,0,4,397,324,L
2023-04-12T15:07:30Z,tlzx847n,serial-reaction-time,1,P,5,1,54,4231,0,3,473.90000009536743,243,H
2023-04-12T15:07:31Z,tlzx847n,serial-reaction-time,1,R,5,1,55,4231,0,4,375.90000009536743,434,T
2023-04-12T15:07:31Z,tlzx847n,serial-reaction-time,1,P,5,1,56,4231,0,1,466.09999990463257,341,H
2023-04-12T15:07:32Z,tlzx847n,serial-reaction-time,NA,R,5,1,57,4231,0,4,345.19999980926514,414,T
2023-04-12T15:07:32Z,tlzx847n,serial-reaction-time,1,R,5,0,57,4231,0,4,797.0999999046326,414,T
2023-04-12T15:07:33Z,tlzx847n,serial-reaction-time,1,P,5,1,58,4231,0,4,299.7000000476837,144,H
2023-04-12T15:07:33Z,tlzx847n,serial-reaction-time,1,R,5,1,59,4231,0,2,478.09999990463257,442,H
2023-04-12T15:07:34Z,tlzx847n,serial-reaction-time,1,P,5,1,60,4231,0,2,274.5,422,H
2023-04-12T15:07:34Z,tlzx847n,serial-reaction-time,1,R,5,1,61,4231,0,2,286,222,R
2023-04-12T15:07:35Z,tlzx847n,serial-reaction-time,1,P,5,1,62,4231,0,3,481.09999990463257,223,H
2023-04-12T15:07:35Z,tlzx847n,serial-reaction-time,1,R,5,1,63,4231,0,3,237.70000004768372,233,H
2023-04-12T15:07:36Z,tlzx847n,serial-reaction-time,1,P,5,1,64,4231,0,1,561.7999999523163,331,H
2023-04-12T15:07:36Z,tlzx847n,serial-reaction-time,1,R,5,1,65,4231,0,1,312.5,311,H
2023-04-12T15:07:37Z,tlzx847n,serial-reaction-time,1,P,5,1,66,4231,0,4,302.09999990463257,114,H
2023-04-12T15:07:37Z,tlzx847n,serial-reaction-time,1,R,5,1,67,4231,0,3,501,143,L
2023-04-12T15:07:38Z,tlzx847n,serial-reaction-time,1,P,5,1,68,4231,0,2,463.39999985694885,432,H
2023-04-12T15:07:39Z,tlzx847n,serial-reaction-time,1,R,5,1,69,4231,0,1,749.9000000953674,321,H
2023-04-12T15:07:39Z,tlzx847n,serial-reaction-time,NA,P,5,1,70,4231,0,3,353.2000000476837,213,H
2023-04-12T15:07:40Z,tlzx847n,serial-reaction-time,1,P,5,0,70,4231,0,3,588,213,H
2023-04-12T15:07:40Z,tlzx847n,serial-reaction-time,1,R,5,1,71,4231,0,4,413.2000000476837,134,H
2023-04-12T15:07:41Z,tlzx847n,serial-reaction-time,1,P,5,1,72,4231,0,1,895.7000000476837,341,H
2023-04-12T15:07:42Z,tlzx847n,serial-reaction-time,1,R,5,1,73,4231,0,1,328.10000014305115,411,L
2023-04-12T15:07:42Z,tlzx847n,serial-reaction-time,1,P,5,1,74,4231,0,4,348.19999980926514,114,H
2023-04-12T15:07:43Z,tlzx847n,serial-reaction-time,1,R,5,1,75,4231,0,2,306.7000000476837,142,L
2023-04-12T15:07:43Z,tlzx847n,serial-reaction-time,1,P,5,1,76,4231,0,2,326.19999980926514,422,H
2023-04-12T15:07:43Z,tlzx847n,serial-reaction-time,1,R,5,1,77,4231,0,2,305,222,R
2023-04-12T15:07:44Z,tlzx847n,serial-reaction-time,1,P,5,1,78,4231,0,3,470.5,223,H
2023-04-12T15:07:44Z,tlzx847n,serial-reaction-time,NA,R,5,1,79,4231,0,1,52.5,231,L
2023-04-12T15:07:45Z,tlzx847n,serial-reaction-time,1,R,5,0,79,4231,0,1,407.5,231,L
2023-04-12T15:07:45Z,tlzx847n,serial-reaction-time,NA,P,5,1,80,4231,0,1,327.5,311,H
2023-04-12T15:07:45Z,tlzx847n,serial-reaction-time,1,P,5,0,80,4231,0,1,381.5,311,H
2023-04-12T15:07:50Z,tlzx847n,html-keyboard-response,NA,NA,NA,NA,NA,NA,NA,NA,NA,NA,NA
2023-04-12T15:07:53Z,tlzx847n,html-keyboard-response,NA,NA,NA,NA,NA,NA,NA,NA,NA,NA,NA
2023-04-12T15:07:54Z,tlzx847n,fullscreen,NA,NA,NA,NA,NA,NA,NA,NA,NA,NA,NA
2023-04-12T23:55:56Z,ignzshk6,fullscreen,NA,NA,NA,NA,NA,NA,NA,NA,NA,NA,NA
2023-04-12T23:56:00Z,ignzshk6,html-keyboard-response,NA,NA,NA,NA,NA,NA,NA,NA,NA,NA,NA
2023-04-12T23:56:01Z,ignzshk6,serial-reaction-time,1,R,1,1,1,1234,0,2,335.8999999985099,2,X
2023-04-12T23:56:01Z,ignzshk6,serial-reaction-time,1,P,1,1,2,1234,0,1,309.6000000014901,21,X
2023-04-12T23:56:02Z,ignzshk6,serial-reaction-time,1,R,1,1,3,1234,0,1,248.39999999850988,211,L
2023-04-12T23:56:02Z,ignzshk6,serial-reaction-time,1,P,1,1,4,1234,0,2,324.8999999985099,112,H
2023-04-12T23:56:03Z,ignzshk6,serial-reaction-time,1,R,1,1,5,1234,0,1,354,121,T
2023-04-12T23:56:03Z,ignzshk6,serial-reaction-time,1,P,1,1,6,1234,0,3,331.70000000298023,213,H
2023-04-12T23:56:04Z,ignzshk6,serial-reaction-time,1,R,1,1,7,1234,0,3,251.69999999925497,133,L
2023-04-12T23:56:04Z,ignzshk6,serial-reaction-time,1,P,1,1,8,1234,0,4,329.20000000298023,334,H
2023-04-12T23:56:05Z,ignzshk6,serial-reaction-time,1,R,1,1,9,1234,0,4,287.3999999985099,344,H
2023-04-12T23:56:05Z,ignzshk6,serial-reaction-time,1,P,1,1,10,1234,0,1,364.80000000074506,441,H
2023-04-12T23:56:06Z,ignzshk6,serial-reaction-time,1,R,1,1,11,1234,0,2,346.5999999977648,412,L
2023-04-12T23:56:06Z,ignzshk6,serial-reaction-time,1,P,1,1,12,1234,0,2,243.10000000149012,122,H
2023-04-12T23:56:06Z,ignzshk6,serial-reaction-time,1,R,1,1,13,1234,0,4,343.4000000022352,224,L
2023-04-12T23:56:07Z,ignzshk6,serial-reaction-time,1,P,1,1,14,1234,0,3,375.69999999925494,243,H
2023-04-12T23:56:07Z,ignzshk6,serial-reaction-time,1,R,1,1,15,1234,0,3,231.5,433,L
2023-04-12T23:56:08Z,ignzshk6,serial-reaction-time,1,P,1,1,16,1234,0,4,348.80000000074506,334,H
2023-04-12T23:56:08Z,ignzshk6,serial-reaction-time,1,R,1,1,17,1234,0,2,298.79999999701977,342,L
2023-04-12T23:56:08Z,ignzshk6,serial-reaction-time,NA,P,1,1,18,1234,0,1,180.70000000298023,421,H
2023-04-12T23:56:09Z,ignzshk6,serial-reaction-time,1,P,1,0,18,1234,0,1,438.5000000037253,421,H
2023-04-12T23:56:09Z,ignzshk6,serial-reaction-time,1,R,1,1,19,1234,0,3,307.69999999925494,213,H
2023-04-12T23:56:10Z,ignzshk6,serial-reaction-time,1,P,1,1,20,1234,0,2,245.5,132,H
2023-04-12T23:56:10Z,ignzshk6,serial-reaction-time,1,R,1,1,21,1234,0,2,252.60000000149012,322,L
2023-04-12T23:56:10Z,ignzshk6,serial-reaction-time,1,P,1,1,22,1234,0,3,321.8999999985099,223,H
2023-04-12T23:56:11Z,ignzshk6,serial-reaction-time,NA,R,1,1,23,1234,0,1,216.39999999850988,231,L
2023-04-12T23:56:11Z,ignzshk6,serial-reaction-time,1,R,1,0,23,1234,0,1,461.0999999977648,231,L
2023-04-12T23:56:11Z,ignzshk6,serial-reaction-time,1,P,1,1,24,1234,0,4,317.79999999701977,314,H
2023-04-12T23:56:12Z,ignzshk6,serial-reaction-time,1,R,1,1,25,1234,0,2,258.29999999701977,142,H
2023-04-12T23:56:12Z,ignzshk6,serial-reaction-time,1,P,1,1,26,1234,0,1,289.69999999925494,421,H
2023-04-12T23:56:13Z,ignzshk6,serial-reaction-time,1,R,1,1,27,1234,0,3,324.80000000074506,213,H
2023-04-12T23:56:13Z,ignzshk6,serial-reaction-time,1,P,1,1,28,1234,0,2,269.80000000074506,132,H
2023-04-12T23:56:14Z,ignzshk6,serial-reaction-time,1,R,1,1,29,1234,0,3,333.3999999985099,323,T
2023-04-12T23:56:14Z,ignzshk6,serial-reaction-time,1,P,1,1,30,1234,0,3,333.69999999925494,233,H
2023-04-12T23:56:14Z,ignzshk6,serial-reaction-time,1,R,1,1,31,1234,0,3,336.1000000014901,333,R
2023-04-12T23:56:15Z,ignzshk6,serial-reaction-time,1,P,1,1,32,1234,0,4,298.80000000074506,334,H
2023-04-12T23:56:15Z,ignzshk6,serial-reaction-time,1,R,1,1,33,1234,0,3,411,343,T
2023-04-12T23:56:16Z,ignzshk6,serial-reaction-time,1,P,1,1,34,1234,0,1,479.69999999925494,431,H
2023-04-12T23:56:16Z,ignzshk6,serial-reaction-time,1,R,1,1,35,1234,0,1,274.19999999925494,311,L
2023-04-12T23:56:17Z,ignzshk6,serial-reaction-time,1,P,1,1,36,1234,0,2,343.69999999925494,112,H
2023-04-12T23:56:17Z,ignzshk6,serial-reaction-time,1,R,1,1,37,1234,0,2,219,122,H
2023-04-12T23:56:18Z,ignzshk6,serial-reaction-time,1,P,1,1,38,1234,0,3,323.6000000014901,223,H
2023-04-12T23:56:18Z,ignzshk6,serial-reaction-time,NA,R,1,1,39,1234,0,1,205.80000000074503,231,L
2023-04-12T23:56:18Z,ignzshk6,serial-reaction-time,1,R,1,0,39,1234,0,1,491.80000000074506,231,L
2023-04-12T23:56:19Z,ignzshk6,serial-reaction-time,1,P,1,1,40,1234,0,4,522.7999999970198,314,H
2023-04-12T23:56:20Z,ignzshk6,serial-reaction-time,NA,R,1,1,41,1234,0,3,393.0999999977648,143,L
2023-04-12T23:56:20Z,ignzshk6,serial-reaction-time,1,R,1,0,41,1234,0,3,617.1999999992549,143,L
2023-04-12T23:56:20Z,ignzshk6,serial-reaction-time,1,P,1,1,42,1234,0,1,349.0999999977648,431,H
2023-04-12T23:56:21Z,ignzshk6,serial-reaction-time,1,R,1,1,43,1234,0,1,332.1000000014901,311,L
2023-04-12T23:56:21Z,ignzshk6,serial-reaction-time,1,P,1,1,44,1234,0,2,370.19999999925494,112,H
2023-04-12T23:56:22Z,ignzshk6,serial-reaction-time,1,R,1,1,45,1234,0,2,226.19999999925497,122,H
2023-04-12T23:56:22Z,ignzshk6,serial-reaction-time,1,P,1,1,46,1234,0,3,278.19999999925494,223,H
2023-04-12T23:56:22Z,ignzshk6,serial-reaction-time,1,R,1,1,47,1234,0,2,367,232,T
2023-04-12T23:56:23Z,ignzshk6,serial-reaction-time,1,P,1,1,48,1234,0,4,381.80000000074506,324,H
2023-04-12T23:56:23Z,ignzshk6,serial-reaction-time,1,R,1,1,49,1234,0,1,375.30000000074506,241,L
2023-04-12T23:56:24Z,ignzshk6,serial-reaction-time,1,P,1,1,50,1234,0,1,323.6000000014901,411,H
2023-04-12T23:56:24Z,ignzshk6,serial-reaction-time,1,R,1,1,51,1234,0,1,293.30000000074506,111,R
2023-04-12T23:56:25Z,ignzshk6,serial-reaction-time,1,P,1,1,52,1234,0,2,367.80000000074506,112,H
2023-04-12T23:56:25Z,ignzshk6,serial-reaction-time,1,R,1,1,53,1234,0,1,371.80000000074506,121,T
2023-04-12T23:56:26Z,ignzshk6,serial-reaction-time,1,P,1,1,54,1234,0,3,524.7000000029802,213,H
2023-04-12T23:56:27Z,ignzshk6,serial-reaction-time,1,R,1,1,55,1234,0,4,377.4000000022352,134,L
2023-04-12T23:56:27Z,ignzshk6,serial-reaction-time,1,P,1,1,56,1234,0,4,292.29999999701977,344,H
2023-04-12T23:56:27Z,ignzshk6,serial-reaction-time,1,R,1,1,57,1234,0,4,247.5,444,R
2023-04-12T23:56:28Z,ignzshk6,serial-reaction-time,1,P,1,1,58,1234,0,1,387,441,H
2023-04-12T23:56:28Z,ignzshk6,serial-reaction-time,1,R,1,1,59,1234,0,3,382,413,L
2023-04-12T23:56:29Z,ignzshk6,serial-reaction-time,1,P,1,1,60,1234,0,2,328.5,132,H
2023-04-12T23:56:29Z,ignzshk6,serial-reaction-time,1,R,1,1,61,1234,0,1,348.6000000014901,321,L
2023-04-12T23:56:30Z,ignzshk6,serial-reaction-time,1,P,1,1,62,1234,0,3,322.69999999925494,213,H
2023-04-12T23:56:30Z,ignzshk6,serial-reaction-time,1,R,1,1,63,1234,0,3,297.5,133,L
2023-04-12T23:56:31Z,ignzshk6,serial-reaction-time,1,P,1,1,64,1234,0,4,405.69999999925494,334,H
2023-04-12T23:56:31Z,ignzshk6,serial-reaction-time,1,R,1,1,65,1234,0,1,490.5,341,L
2023-04-12T23:56:32Z,ignzshk6,serial-reaction-time,1,P,1,1,66,1234,0,1,231.39999999850988,411,H
2023-04-12T23:56:32Z,ignzshk6,serial-reaction-time,1,R,1,1,67,1234,0,3,406.69999999925494,113,L
2023-04-12T23:56:33Z,ignzshk6,serial-reaction-time,1,P,1,1,68,1234,0,2,235.69999999925497,132,H
2023-04-12T23:56:33Z,ignzshk6,serial-reaction-time,1,R,1,1,69,1234,0,4,455.5,324,H
2023-04-12T23:56:34Z,ignzshk6,serial-reaction-time,NA,P,1,1,70,1234,0,3,278.30000000074506,243,H
2023-04-12T23:56:34Z,ignzshk6,serial-reaction-time,1,P,1,0,70,1234,0,3,580.2000000029802,243,H
2023-04-12T23:56:34Z,ignzshk6,serial-reaction-time,1,R,1,1,71,1234,0,2,303,432,L
2023-04-12T23:56:35Z,ignzshk6,serial-reaction-time,1,P,1,1,72,1234,0,4,415.80000000074506,324,H
2023-04-12T23:56:35Z,ignzshk6,serial-reaction-time,1,R,1,1,73,1234,0,3,319.8999999985099,243,H
2023-04-12T23:56:36Z,ignzshk6,serial-reaction-time,1,P,1,1,74,1234,0,1,321,431,H
2023-04-12T23:56:36Z,ignzshk6,serial-reaction-time,1,R,1,1,75,1234,0,2,378.4000000022352,312,L
2023-04-12T23:56:37Z,ignzshk6,serial-reaction-time,1,P,1,1,76,1234,0,2,273.19999999925494,122,H
2023-04-12T23:56:37Z,ignzshk6,serial-reaction-time,NA,R,1,1,77,1234,0,4,297.9000000022352,224,L
2023-04-12T23:56:37Z,ignzshk6,serial-reaction-time,1,R,1,0,77,1234,0,4,592.6000000014901,224,L
2023-04-12T23:56:38Z,ignzshk6,serial-reaction-time,1,P,1,1,78,1234,0,3,421.1000000014901,243,H
2023-04-12T23:56:38Z,ignzshk6,serial-reaction-time,1,R,1,1,79,1234,0,4,383.30000000074506,434,T
2023-04-12T23:56:39Z,ignzshk6,serial-reaction-time,1,P,1,1,80,1234,0,4,294.5,344,H
2023-04-12T23:56:44Z,ignzshk6,html-keyboard-response,NA,NA,NA,NA,NA,NA,NA,NA,NA,NA,NA
2023-04-12T23:56:46Z,ignzshk6,html-keyboard-response,NA,NA,NA,NA,NA,NA,NA,NA,NA,NA,NA
2023-04-12T23:56:47Z,ignzshk6,serial-reaction-time,1,R,2,1,1,1234,0,4,364.30000000074506,4,X
2023-04-12T23:56:48Z,ignzshk6,serial-reaction-time,1,P,2,1,2,1234,0,1,355.30000000074506,41,X
2023-04-12T23:56:48Z,ignzshk6,serial-reaction-time,1,R,2,1,3,1234,0,1,228,411,H
2023-04-12T23:56:49Z,ignzshk6,serial-reaction-time,1,P,2,1,4,1234,0,2,337.19999999925494,112,H
2023-04-12T23:56:49Z,ignzshk6,serial-reaction-time,1,R,2,1,5,1234,0,4,358.30000000074506,124,L
2023-04-12T23:56:49Z,ignzshk6,serial-reaction-time,NA,P,2,1,6,1234,0,3,218.89999999850988,243,H
2023-04-12T23:56:50Z,ignzshk6,serial-reaction-time,1,P,2,0,6,1234,0,3,463.79999999701977,243,H
2023-04-12T23:56:50Z,ignzshk6,serial-reaction-time,1,R,2,1,7,1234,0,4,360.5,434,T
2023-04-12T23:56:51Z,ignzshk6,serial-reaction-time,1,P,2,1,8,1234,0,4,263,344,H
2023-04-12T23:56:51Z,ignzshk6,serial-reaction-time,1,R,2,1,9,1234,0,4,272.69999999925494,444,R
2023-04-12T23:56:51Z,ignzshk6,serial-reaction-time,1,P,2,1,10,1234,0,1,345.69999999925494,441,H
2023-04-12T23:56:52Z,ignzshk6,serial-reaction-time,1,R,2,1,11,1234,0,1,226.40000000223517,411,H
2023-04-12T23:56:52Z,ignzshk6,serial-reaction-time,1,P,2,1,12,1234,0,2,314.0999999977648,112,H
2023-04-12T23:56:53Z,ignzshk6,serial-reaction-time,1,R,2,1,13,1234,0,1,330.19999999925494,121,T
2023-04-12T23:56:53Z,ignzshk6,serial-reaction-time,1,P,2,1,14,1234,0,3,329.30000000074506,213,H
2023-04-12T23:56:54Z,ignzshk6,serial-reaction-time,1,R,2,1,15,1234,0,1,334.30000000074506,131,T
2023-04-12T23:56:54Z,ignzshk6,serial-reaction-time,1,P,2,1,16,1234,0,4,459.6000000014901,314,H
2023-04-12T23:56:55Z,ignzshk6,serial-reaction-time,1,R,2,1,17,1234,0,2,338.1000000014901,142,H
2023-04-12T23:56:55Z,ignzshk6,serial-reaction-time,1,P,2,1,18,1234,0,1,357,421,H
2023-04-12T23:56:56Z,ignzshk6,serial-reaction-time,1,R,2,1,19,1234,0,3,365.5,213,H
2023-04-12T23:56:56Z,ignzshk6,serial-reaction-time,1,P,2,1,20,1234,0,2,410.5,132,H
2023-04-12T23:56:57Z,ignzshk6,serial-reaction-time,1,R,2,1,21,1234,0,4,409.8999999985099,324,H
2023-04-12T23:56:57Z,ignzshk6,serial-reaction-time,1,P,2,1,22,1234,0,3,463.30000000074506,243,H
2023-04-12T23:56:58Z,ignzshk6,serial-reaction-time,1,R,2,1,23,1234,0,4,423.5,434,T
2023-04-12T23:56:58Z,ignzshk6,serial-reaction-time,1,P,2,1,24,1234,0,4,323.5999999977648,344,H
2023-04-12T23:56:59Z,ignzshk6,serial-reaction-time,1,R,2,1,25,1234,0,2,359.30000000074506,442,L
2023-04-12T23:56:59Z,ignzshk6,serial-reaction-time,1,P,2,1,26,1234,0,1,368.5,421,H
2023-04-12T23:57:00Z,ignzshk6,serial-reaction-time,1,R,2,1,27,1234,0,3,395.8999999985099,213,H
2023-04-12T23:57:00Z,ignzshk6,serial-reaction-time,1,P,2,1,28,1234,0,2,260.9000000022352,132,H
2023-04-12T23:57:01Z,ignzshk6,serial-reaction-time,1,R,2,1,29,1234,0,3,339.80000000074506,323,T
2023-04-12T23:57:01Z,ignzshk6,serial-reaction-time,1,P,2,1,30,1234,0,3,310.0999999977648,233,H
2023-04-12T23:57:02Z,ignzshk6,serial-reaction-time,1,R,2,1,31,1234,0,1,284.5999999977648,331,L
2023-04-12T23:57:02Z,ignzshk6,serial-reaction-time,1,P,2,1,32,1234,0,4,352.8999999985099,314,H
2023-04-12T23:57:03Z,ignzshk6,serial-reaction-time,NA,R,2,1,33,1234,0,4,264.19999999925494,144,L
2023-04-12T23:57:03Z,ignzshk6,serial-reaction-time,1,R,2,0,33,1234,0,4,325.69999999925494,144,L
2023-04-12T23:57:03Z,ignzshk6,serial-reaction-time,1,P,2,1,34,1234,0,1,382.9000000022352,441,H
2023-04-12T23:57:03Z,ignzshk6,serial-reaction-time,1,R,2,1,35,1234,0,1,234.80000000074503,411,H
2023-04-12T23:57:04Z,ignzshk6,serial-reaction-time,1,P,2,1,36,1234,0,2,428.30000000074506,112,H
2023-04-12T23:57:05Z,ignzshk6,serial-reaction-time,1,R,2,1,37,1234,0,4,395.8999999985099,124,L
2023-04-12T23:57:05Z,ignzshk6,serial-reaction-time,1,P,2,1,38,1234,0,3,380.80000000074506,243,H
2023-04-12T23:57:05Z,ignzshk6,serial-reaction-time,1,R,2,1,39,1234,0,2,310.6000000014901,432,L
2023-04-12T23:57:06Z,ignzshk6,serial-reaction-time,1,P,2,1,40,1234,0,4,338.19999999925494,324,H
2023-04-12T23:57:06Z,ignzshk6,serial-reaction-time,1,R,2,1,41,1234,0,2,305,242,T
2023-04-12T23:57:07Z,ignzshk6,serial-reaction-time,1,P,2,1,42,1234,0,1,334.5,421,H
2023-04-12T23:57:07Z,ignzshk6,serial-reaction-time,1,R,2,1,43,1234,0,1,245.39999999850988,211,L
2023-04-12T23:57:08Z,ignzshk6,serial-reaction-time,1,P,2,1,44,1234,0,2,344.30000000074506,112,H
2023-04-12T23:57:08Z,ignzshk6,serial-reaction-time,1,R,2,1,45,1234,0,3,345.8999999985099,123,L
2023-04-12T23:57:09Z,ignzshk6,serial-reaction-time,1,P,2,1,46,1234,0,3,260.30000000074506,233,H
2023-04-12T23:57:09Z,ignzshk6,serial-reaction-time,1,R,2,1,47,1234,0,2,319.9000000022352,332,L
2023-04-12T23:57:10Z,ignzshk6,serial-reaction-time,1,P,2,1,48,1234,0,4,342.30000000074506,324,H
2023-04-12T23:57:10Z,ignzshk6,serial-reaction-time,1,R,2,1,49,1234,0,2,386.5,242,T
2023-04-12T23:57:10Z,ignzshk6,serial-reaction-time,1,P,2,1,50,1234,0,1,348.30000000074506,421,H
2023-04-12T23:57:11Z,ignzshk6,serial-reaction-time,1,R,2,1,51,1234,0,3,390,213,H
2023-04-12T23:57:11Z,ignzshk6,serial-reaction-time,1,P,2,1,52,1234,0,2,114.89999999850988,132,H
2023-04-12T23:57:12Z,ignzshk6,serial-reaction-time,1,R,2,1,53,1234,0,2,271.20000000298023,322,L
2023-04-12T23:57:12Z,ignzshk6,serial-reaction-time,1,P,2,1,54,1234,0,3,388.5,223,H
2023-04-12T23:57:13Z,ignzshk6,serial-reaction-time,1,R,2,1,55,1234,0,3,268.3999999985099,233,H
2023-04-12T23:57:13Z,ignzshk6,serial-reaction-time,1,P,2,1,56,1234,0,4,389.19999999925494,334,H
2023-04-12T23:57:13Z,ignzshk6,serial-reaction-time,1,R,2,1,57,1234,0,2,269.0999999977648,342,L
2023-04-12T23:57:14Z,ignzshk6,serial-reaction-time,1,P,2,1,58,1234,0,1,297.8999999985099,421,H
2023-04-12T23:57:14Z,ignzshk6,serial-reaction-time,1,R,2,1,59,1234,0,2,292,212,T
2023-04-12T23:57:15Z,ignzshk6,serial-reaction-time,1,P,2,1,60,1234,0,2,270.5,122,H
2023-04-12T23:57:15Z,ignzshk6,serial-reaction-time,1,R,2,1,61,1234,0,1,321.8999999985099,221,L
2023-04-12T23:57:16Z,ignzshk6,serial-reaction-time,1,P,2,1,62,1234,0,3,413.8999999985099,213,H
2023-04-12T23:57:16Z,ignzshk6,serial-reaction-time,NA,R,2,1,63,1234,0,1,151.69999999925494,131,T
2023-04-12T23:57:16Z,ignzshk6,serial-reaction-time,1,R,2,0,63,1234,0,1,531.6999999992549,131,T
2023-04-12T23:57:17Z,ignzshk6,serial-reaction-time,1,P,2,1,64,1234,0,4,334.9000000022352,314,H
2023-04-12T23:57:17Z,ignzshk6,serial-reaction-time,NA,R,2,1,65,1234,0,3,218.5,143,L
2023-04-12T23:57:18Z,ignzshk6,serial-reaction-time,1,R,2,0,65,1234,0,3,540.4000000022352,143,L
2023-04-12T23:57:18Z,ignzshk6,serial-reaction-time,1,P,2,1,66,1234,0,1,295.29999999701977,431,H
2023-04-12T23:57:18Z,ignzshk6,serial-reaction-time,1,R,2,1,67,1234,0,2,372.0999999977648,312,L
2023-04-12T23:57:19Z,ignzshk6,serial-reaction-time,1,P,2,1,68,1234,0,2,233.30000000074503,122,H
2023-04-12T23:57:19Z,ignzshk6,serial-reaction-time,1,R,2,1,69,1234,0,3,379.69999999925494,223,H
2023-04-12T23:57:20Z,ignzshk6,serial-reaction-time,1,P,2,1,70,1234,0,3,257.9000000022352,233,H
2023-04-12T23:57:20Z,ignzshk6,serial-reaction-time,1,R,2,1,71,1234,0,4,390.69999999925494,334,H
2023-04-12T23:57:21Z,ignzshk6,serial-reaction-time,1,P,2,1,72,1234,0,4,293,344,H
2023-04-12T23:57:21Z,ignzshk6,serial-reaction-time,1,R,2,1,73,1234,0,3,425.19999999925494,443,L
2023-04-12T23:57:22Z,ignzshk6,serial-reaction-time,1,P,2,1,74,1234,0,1,303.8999999985099,431,H
