datetime,id,trial_type,correct,p_or_r,block,first_response,trial_number,sequence,is_practice,correct_pos,cumulative_rt,actual_triplet,triplet_type
2022-12-05T13:50:13Z,ov0ykrcj,fullscreen,NA,NA,NA,NA,NA,NA,NA,NA,NA,NA,NA
2022-12-05T13:50:15Z,ov0ykrcj,html-keyboard-response,NA,NA,NA,NA,NA,NA,NA,NA,NA,NA,NA
2022-12-05T13:50:17Z,ov0ykrcj,serial-reaction-time,1,R,1,1,1,4213,0,4,388.40000009536743,4,X
2022-12-05T13:50:17Z,ov0ykrcj,serial-reaction-time,1,P,1,1,2,4213,0,4,293.80000019073486,44,X
2022-12-05T13:50:17Z,ov0ykrcj,serial-reaction-time,NA,R,1,1,3,4213,0,2,268.7000000476837,442,H
2022-12-05T13:50:18Z,ov0ykrcj,serial-reaction-time,1,R,1,0,3,4213,0,2,559.2000000476837,442,H
2022-12-05T13:50:18Z,ov0ykrcj,serial-reaction-time,1,P,1,1,4,4213,0,2,303.89999985694885,422,H
2022-12-05T13:50:19Z,ov0ykrcj,serial-reaction-time,1,R,1,1,5,4213,0,3,336.10000014305115,223,L
2022-12-05T13:50:19Z,ov0ykrcj,serial-reaction-time,1,P,1,1,6,4213,0,1,400.2999999523163,231,H
2022-12-05T13:50:20Z,ov0ykrcj,serial-reaction-time,1,R,1,1,7,4213,0,2,357.2999999523163,312,L
2022-12-05T13:50:20Z,ov0ykrcj,serial-reaction-time,1,P,1,1,8,4213,0,3,403.09999990463257,123,H
2022-12-05T13:50:21Z,ov0ykrcj,serial-reaction-time,1,R,1,1,9,4213,0,4,338,234,L
2022-12-05T13:50:21Z,ov0ykrcj,serial-reaction-time,1,P,1,1,10,4213,0,4,337,344,H
2022-12-05T13:50:22Z,ov0ykrcj,serial-reaction-time,1,R,1,1,11,4213,0,2,333.5,442,H
2022-12-05T13:50:22Z,ov0ykrcj,serial-reaction-time,1,P,1,1,12,4213,0,2,304.2999999523163,422,H
2022-12-05T13:50:23Z,ov0ykrcj,serial-reaction-time,1,R,1,1,13,4213,0,3,307.90000009536743,223,L
2022-12-05T13:50:23Z,ov0ykrcj,serial-reaction-time,1,P,1,1,14,4213,0,1,341.89999985694885,231,H
2022-12-05T13:50:24Z,ov0ykrcj,serial-reaction-time,1,R,1,1,15,4213,0,4,369.7000000476837,314,H
2022-12-05T13:50:24Z,ov0ykrcj,serial-reaction-time,NA,P,1,1,16,4213,0,3,258.89999985694885,143,H
2022-12-05T13:50:24Z,ov0ykrcj,serial-reaction-time,1,P,1,0,16,4213,0,3,502.2999999523163,143,H
2022-12-05T13:50:25Z,ov0ykrcj,serial-reaction-time,1,R,1,1,17,4213,0,2,340.7000000476837,432,H
2022-12-05T13:50:25Z,ov0ykrcj,serial-reaction-time,1,P,1,1,18,4213,0,4,353.40000009536743,324,H
2022-12-05T13:50:26Z,ov0ykrcj,serial-reaction-time,1,R,1,1,19,4213,0,1,357.40000009536743,241,H
2022-12-05T13:50:26Z,ov0ykrcj,serial-reaction-time,1,P,1,1,20,4213,0,2,319.5,412,H
2022-12-05T13:50:27Z,ov0ykrcj,serial-reaction-time,1,R,1,1,21,4213,0,3,436.19999980926514,123,H
2022-12-05T13:50:27Z,ov0ykrcj,serial-reaction-time,1,P,1,1,22,4213,0,1,364.7000000476837,231,H
2022-12-05T13:50:28Z,ov0ykrcj,serial-reaction-time,1,R,1,1,23,4213,0,1,296.7999999523163,311,L
2022-12-05T13:50:28Z,ov0ykrcj,serial-reaction-time,1,P,1,1,24,4213,0,3,353.89999985694885,113,H
2022-12-05T13:50:29Z,ov0ykrcj,serial-reaction-time,1,R,1,1,25,4213,0,1,337.7999999523163,131,T
2022-12-05T13:50:29Z,ov0ykrcj,serial-reaction-time,1,P,1,1,26,4213,0,4,361.5,314,H
2022-12-05T13:50:30Z,ov0ykrcj,serial-reaction-time,1,R,1,1,27,4213,0,3,425.40000009536743,143,H
2022-12-05T13:50:30Z,ov0ykrcj,serial-reaction-time,1,P,1,1,28,4213,0,2,399.7999999523163,432,H
2022-12-05T13:50:31Z,ov0ykrcj,serial-reaction-time,NA,R,1,1,29,4213,0,3,360.59999990463257,323,T
2022-12-05T13:50:31Z,ov0ykrcj,serial-reaction-time,1,R,1,0,29,4213,0,3,651.5,323,T
2022-12-05T13:50:32Z,ov0ykrcj,serial-reaction-time,1,P,1,1,30,4213,0,1,311.69999980926514,231,H
2022-12-05T13:50:32Z,ov0ykrcj,serial-reaction-time,NA,R,1,1,31,4213,0,4,278.09999990463257,314,H
2022-12-05T13:50:32Z,ov0ykrcj,serial-reaction-time,1,R,1,0,31,4213,0,4,510.39999985694885,314,H
2022-12-05T13:50:33Z,ov0ykrcj,serial-reaction-time,1,P,1,1,32,4213,0,3,398.2999999523163,143,H
2022-12-05T13:50:33Z,ov0ykrcj,serial-reaction-time,1,R,1,1,33,4213,0,4,416,434,T
2022-12-05T13:50:34Z,ov0ykrcj,serial-reaction-time,1,P,1,1,34,4213,0,4,337.09999990463257,344,H
2022-12-05T13:50:34Z,ov0ykrcj,serial-reaction-time,1,R,1,1,35,4213,0,4,336.5,444,R
2022-12-05T13:50:35Z,ov0ykrcj,serial-reaction-time,1,P,1,1,36,4213,0,2,433.7999999523163,442,H
2022-12-05T13:50:35Z,ov0ykrcj,serial-reaction-time,1,R,1,1,37,4213,0,4,428.40000009536743,424,T
2022-12-05T13:50:36Z,ov0ykrcj,serial-reaction-time,1,P,1,1,38,4213,0,1,386.59999990463257,241,H
2022-12-05T13:50:36Z,ov0ykrcj,serial-reaction-time,1,R,1,1,39,4213,0,1,341.10000014305115,411,L
2022-12-05T13:50:37Z,ov0ykrcj,serial-reaction-time,1,P,1,1,40,4213,0,3,351.7000000476837,113,H
2022-12-05T13:50:37Z,ov0ykrcj,serial-reaction-time,1,R,1,1,41,4213,0,3,246.5,133,H
2022-12-05T13:50:38Z,ov0ykrcj,serial-reaction-time,1,P,1,1,42,4213,0,4,347.2999999523163,334,H
2022-12-05T13:50:39Z,ov0ykrcj,serial-reaction-time,1,R,1,1,43,4213,0,3,521.7999999523163,343,T
2022-12-05T13:50:39Z,ov0ykrcj,serial-reaction-time,1,P,1,1,44,4213,0,2,423.7999999523163,432,H
2022-12-05T13:50:40Z,ov0ykrcj,serial-reaction-time,1,R,1,1,45,4213,0,4,347.89999985694885,324,H
2022-12-05T13:50:40Z,ov0ykrcj,serial-reaction-time,NA,P,1,1,46,4213,0,1,380.7999999523163,241,H
2022-12-05T13:50:40Z,ov0ykrcj,serial-reaction-time,1,P,1,0,46,4213,0,1,732.8999998569489,241,H
2022-12-05T13:50:41Z,ov0ykrcj,serial-reaction-time,1,R,1,1,47,4213,0,4,366.2000000476837,414,T
2022-12-05T13:50:41Z,ov0ykrcj,serial-reaction-time,1,P,1,1,48,4213,0,3,380.09999990463257,143,H
2022-12-05T13:50:42Z,ov0ykrcj,serial-reaction-time,1,R,1,1,49,4213,0,4,369.40000009536743,434,T
2022-12-05T13:50:43Z,ov0ykrcj,serial-reaction-time,1,P,1,1,50,4213,0,4,437.2000000476837,344,H
2022-12-05T13:50:43Z,ov0ykrcj,serial-reaction-time,1,R,1,1,51,4213,0,3,477.7999999523163,443,L
2022-12-05T13:50:44Z,ov0ykrcj,serial-reaction-time,NA,P,1,1,52,4213,0,2,354.7999999523163,432,H
2022-12-05T13:50:44Z,ov0ykrcj,serial-reaction-time,1,P,1,0,52,4213,0,2,716,432,H
2022-12-05T13:50:45Z,ov0ykrcj,serial-reaction-time,1,R,1,1,53,4213,0,3,359.90000009536743,323,T
2022-12-05T13:50:45Z,ov0ykrcj,serial-reaction-time,1,P,1,1,54,4213,0,1,362.2999999523163,231,H
2022-12-05T13:50:45Z,ov0ykrcj,serial-reaction-time,NA,R,1,1,55,4213,0,2,343.7999999523163,312,L
2022-12-05T13:50:46Z,ov0ykrcj,serial-reaction-time,1,R,1,0,55,4213,0,2,345.09999990463257,312,L
2022-12-05T13:50:46Z,ov0ykrcj,serial-reaction-time,NA,P,1,1,56,4213,0,3,119.09999990463255,123,H
2022-12-05T13:50:46Z,ov0ykrcj,serial-reaction-time,1,P,1,0,56,4213,0,3,579,123,H
2022-12-05T13:50:47Z,ov0ykrcj,serial-reaction-time,1,R,1,1,57,4213,0,4,274.40000009536743,234,L
2022-12-05T13:50:47Z,ov0ykrcj,serial-reaction-time,1,P,1,1,58,4213,0,4,355.80000019073486,344,H
2022-12-05T13:50:48Z,ov0ykrcj,serial-reaction-time,1,R,1,1,59,4213,0,3,379.30000019073486,443,L
2022-12-05T13:50:48Z,ov0ykrcj,serial-reaction-time,1,P,1,1,60,4213,0,2,370.7000000476837,432,H
2022-12-05T13:50:49Z,ov0ykrcj,serial-reaction-time,1,R,1,1,61,4213,0,4,327.7000000476837,324,H
2022-12-05T13:50:49Z,ov0ykrcj,serial-reaction-time,1,P,1,1,62,4213,0,1,487.09999990463257,241,H
2022-12-05T13:50:50Z,ov0ykrcj,serial-reaction-time,1,R,1,1,63,4213,0,2,454.39999985694885,412,H
2022-12-05T13:50:50Z,ov0ykrcj,serial-reaction-time,1,P,1,1,64,4213,0,3,424,123,H
2022-12-05T13:50:51Z,ov0ykrcj,serial-reaction-time,1,R,1,1,65,4213,0,4,324.5,234,L
2022-12-05T13:50:51Z,ov0ykrcj,serial-reaction-time,1,P,1,1,66,4213,0,4,320.30000019073486,344,H
2022-12-05T13:50:52Z,ov0ykrcj,serial-reaction-time,1,R,1,1,67,4213,0,3,361.39999985694885,443,L
2022-12-05T13:50:52Z,ov0ykrcj,serial-reaction-time,1,P,1,1,68,4213,0,2,437.5,432,H
2022-12-05T13:50:53Z,ov0ykrcj,serial-reaction-time,1,R,1,1,69,4213,0,1,305.7000000476837,321,L
2022-12-05T13:50:53Z,ov0ykrcj,serial-reaction-time,1,P,1,1,70,4213,0,1,310.60000014305115,211,H
2022-12-05T13:50:54Z,ov0ykrcj,serial-reaction-time,NA,R,1,1,71,4213,0,2,350.09999990463257,112,L
2022-12-05T13:50:54Z,ov0ykrcj,serial-reaction-time,1,R,1,0,71,4213,0,2,626.1999998092651,112,L
2022-12-05T13:50:55Z,ov0ykrcj,serial-reaction-time,NA,P,1,1,72,4213,0,3,374.2999999523163,123,H
2022-12-05T13:50:55Z,ov0ykrcj,serial-reaction-time,1,P,1,0,72,4213,0,3,615.1999998092651,123,H
2022-12-05T13:50:55Z,ov0ykrcj,serial-reaction-time,1,R,1,1,73,4213,0,3,384.5,233,L
2022-12-05T13:50:56Z,ov0ykrcj,serial-reaction-time,1,P,1,1,74,4213,0,4,325.59999990463257,334,H
2022-12-05T13:50:56Z,ov0ykrcj,serial-reaction-time,NA,R,1,1,75,4213,0,3,389.40000009536743,343,T
2022-12-05T13:50:57Z,ov0ykrcj,serial-reaction-time,NA,R,1,0,75,4213,0,3,698.6000001430511,343,T
2022-12-05T13:50:57Z,ov0ykrcj,serial-reaction-time,1,R,1,0,75,4213,0,3,993.2000002861024,343,T
2022-12-05T13:50:58Z,ov0ykrcj,serial-reaction-time,1,P,1,1,76,4213,0,2,417.69999980926514,432,H
2022-12-05T13:50:58Z,ov0ykrcj,serial-reaction-time,1,R,1,1,77,4213,0,3,421.60000014305115,323,T
2022-12-05T13:50:59Z,ov0ykrcj,serial-reaction-time,1,P,1,1,78,4213,0,1,381.10000014305115,231,H
2022-12-05T13:50:59Z,ov0ykrcj,serial-reaction-time,NA,R,1,1,79,4213,0,2,314.69999980926514,312,L
2022-12-05T13:50:59Z,ov0ykrcj,serial-reaction-time,1,R,1,0,79,4213,0,2,653.099999666214,312,L
2022-12-05T13:51:00Z,ov0ykrcj,serial-reaction-time,1,P,1,1,80,4213,0,3,391.90000009536743,123,H
2022-12-05T13:51:05Z,ov0ykrcj,html-keyboard-response,NA,NA,NA,NA,NA,NA,NA,NA,NA,NA,NA
2022-12-05T13:51:06Z,ov0ykrcj,html-keyboard-response,NA,NA,NA,NA,NA,NA,NA,NA,NA,NA,NA
2022-12-05T13:51:08Z,ov0ykrcj,serial-reaction-time,1,R,2,1,1,4213,0,1,430.2000000476837,1,X
2022-12-05T13:51:08Z,ov0ykrcj,serial-reaction-time,1,P,2,1,2,4213,0,4,417.60000014305115,14,X
2022-12-05T13:51:09Z,ov0ykrcj,serial-reaction-time,1,R,2,1,3,4213,0,4,353.89999985694885,144,L
2022-12-05T13:51:09Z,ov0ykrcj,serial-reaction-time,1,P,2,1,4,4213,0,2,393.2999999523163,442,H
2022-12-05T13:51:10Z,ov0ykrcj,serial-reaction-time,1,R,2,1,5,4213,0,1,444.39999985694885,421,L
2022-12-05T13:51:10Z,ov0ykrcj,serial-reaction-time,1,P,2,1,6,4213,0,1,335.40000009536743,211,H
2022-12-05T13:51:11Z,ov0ykrcj,serial-reaction-time,1,R,2,1,7,4213,0,3,406.7000000476837,113,H
2022-12-05T13:51:11Z,ov0ykrcj,serial-reaction-time,1,P,2,1,8,4213,0,3,294.5,133,H
2022-12-05T13:51:12Z,ov0ykrcj,serial-reaction-time,1,R,2,1,9,4213,0,4,384.30000019073486,334,H
2022-12-05T13:51:12Z,ov0ykrcj,serial-reaction-time,1,P,2,1,10,4213,0,4,338.40000009536743,344,H
2022-12-05T13:51:13Z,ov0ykrcj,serial-reaction-time,1,R,2,1,11,4213,0,3,369.60000014305115,443,L
2022-12-05T13:51:13Z,ov0ykrcj,serial-reaction-time,1,P,2,1,12,4213,0,2,480.39999985694885,432,H
2022-12-05T13:51:14Z,ov0ykrcj,serial-reaction-time,1,R,2,1,13,4213,0,4,368.39999985694885,324,H
2022-12-05T13:51:14Z,ov0ykrcj,serial-reaction-time,1,P,2,1,14,4213,0,1,332.09999990463257,241,H
2022-12-05T13:51:15Z,ov0ykrcj,serial-reaction-time,1,R,2,1,15,4213,0,3,426.2999999523163,413,L
2022-12-05T13:51:15Z,ov0ykrcj,serial-reaction-time,1,P,2,1,16,4213,0,3,306,133,H
2022-12-05T13:51:16Z,ov0ykrcj,serial-reaction-time,1,R,2,1,17,4213,0,3,350.59999990463257,333,R
2022-12-05T13:51:16Z,ov0ykrcj,serial-reaction-time,1,P,2,1,18,4213,0,4,369.7000000476837,334,H
2022-12-05T13:51:17Z,ov0ykrcj,serial-reaction-time,1,R,2,1,19,4213,0,4,312.59999990463257,344,H
2022-12-05T13:51:17Z,ov0ykrcj,serial-reaction-time,1,P,2,1,20,4213,0,2,356,442,H
2022-12-05T13:51:18Z,ov0ykrcj,serial-reaction-time,1,R,2,1,21,4213,0,3,396.7999999523163,423,L
2022-12-05T13:51:18Z,ov0ykrcj,serial-reaction-time,1,P,2,1,22,4213,0,1,377.5,231,H
2022-12-05T13:51:19Z,ov0ykrcj,serial-reaction-time,NA,R,2,1,23,4213,0,2,383.7000000476837,312,L
2022-12-05T13:51:19Z,ov0ykrcj,serial-reaction-time,1,R,2,0,23,4213,0,2,672.7000000476837,312,L
2022-12-05T13:51:20Z,ov0ykrcj,serial-reaction-time,1,P,2,1,24,4213,0,3,391.5,123,H
2022-12-05T13:51:20Z,ov0ykrcj,serial-reaction-time,1,R,2,1,25,4213,0,2,459.7999999523163,232,T
2022-12-05T13:51:21Z,ov0ykrcj,serial-reaction-time,NA,P,2,1,26,4213,0,4,413.89999985694885,324,H
2022-12-05T13:51:21Z,ov0ykrcj,serial-reaction-time,1,P,2,0,26,4213,0,4,711.5999999046326,324,H
2022-12-05T13:51:22Z,ov0ykrcj,serial-reaction-time,1,R,2,1,27,4213,0,4,351,244,L
2022-12-05T13:51:22Z,ov0ykrcj,serial-reaction-time,1,P,2,1,28,4213,0,2,555.2999999523163,442,H
2022-12-05T13:51:23Z,ov0ykrcj,serial-reaction-time,1,R,2,1,29,4213,0,1,538.3000001907349,421,L
2022-12-05T13:51:24Z,ov0ykrcj,serial-reaction-time,1,P,2,1,30,4213,0,1,343.7999999523163,211,H
2022-12-05T13:51:24Z,ov0ykrcj,serial-reaction-time,1,R,2,1,31,4213,0,3,637.0999999046326,113,H
2022-12-05T13:51:25Z,ov0ykrcj,serial-reaction-time,1,P,2,1,32,4213,0,3,307.2999999523163,133,H
2022-12-05T13:51:25Z,ov0ykrcj,serial-reaction-time,1,R,2,1,33,4213,0,2,421.7000000476837,332,L
2022-12-05T13:51:26Z,ov0ykrcj,serial-reaction-time,1,P,2,1,34,4213,0,4,578.0999999046326,324,H
2022-12-05T13:51:27Z,ov0ykrcj,serial-reaction-time,1,R,2,1,35,4213,0,4,293.09999990463257,244,L
2022-12-05T13:51:27Z,ov0ykrcj,serial-reaction-time,1,P,2,1,36,4213,0,2,735.2999999523163,442,H
2022-12-05T13:51:28Z,ov0ykrcj,serial-reaction-time,1,R,2,1,37,4213,0,2,363.09999990463257,422,H
2022-12-05T13:51:28Z,ov0ykrcj,serial-reaction-time,1,P,2,1,38,4213,0,1,423,221,H
2022-12-05T13:51:29Z,ov0ykrcj,serial-reaction-time,1,R,2,1,39,4213,0,4,354.59999990463257,214,L
2022-12-05T13:51:30Z,ov0ykrcj,serial-reaction-time,1,P,2,1,40,4213,0,3,461.59999990463257,143,H
2022-12-05T13:51:30Z,ov0ykrcj,serial-reaction-time,1,R,2,1,41,4213,0,2,514.6999998092651,432,H
2022-12-05T13:51:31Z,ov0ykrcj,serial-reaction-time,1,P,2,1,42,4213,0,4,485.39999985694885,324,H
2022-12-05T13:51:31Z,ov0ykrcj,serial-reaction-time,1,R,2,1,43,4213,0,2,411.2999999523163,242,T
2022-12-05T13:51:32Z,ov0ykrcj,serial-reaction-time,1,P,2,1,44,4213,0,2,397.7000000476837,422,H
2022-12-05T13:51:33Z,ov0ykrcj,serial-reaction-time,1,R,2,1,45,4213,0,3,464.2000000476837,223,L
2022-12-05T13:51:33Z,ov0ykrcj,serial-reaction-time,1,P,2,1,46,4213,0,1,415.5,231,H
2022-12-05T13:51:34Z,ov0ykrcj,serial-reaction-time,1,R,2,1,47,4213,0,1,316.90000009536743,311,L
2022-12-05T13:51:34Z,ov0ykrcj,serial-reaction-time,1,P,2,1,48,4213,0,3,714.4000000953674,113,H
2022-12-05T13:51:35Z,ov0ykrcj,serial-reaction-time,1,R,2,1,49,4213,0,1,571.1999998092651,131,T
2022-12-05T13:51:36Z,ov0ykrcj,serial-reaction-time,1,P,2,1,50,4213,0,4,498.69999980926514,314,H
2022-12-05T13:51:36Z,ov0ykrcj,serial-reaction-time,1,R,2,1,51,4213,0,2,465.40000009536743,142,L
2022-12-05T13:51:37Z,ov0ykrcj,serial-reaction-time,1,P,2,1,52,4213,0,2,390.2999999523163,422,H
2022-12-05T13:51:38Z,ov0ykrcj,serial-reaction-time,NA,R,2,1,53,4213,0,1,570.0999999046326,221,H
2022-12-05T13:51:38Z,ov0ykrcj,serial-reaction-time,1,R,2,0,53,4213,0,1,890.1999998092651,221,H
2022-12-05T13:51:38Z,ov0ykrcj,serial-reaction-time,1,P,2,1,54,4213,0,1,392.09999990463257,211,H
2022-12-05T13:51:39Z,ov0ykrcj,serial-reaction-time,1,R,2,1,55,4213,0,3,557.2000000476837,113,H
2022-12-05T13:51:40Z,ov0ykrcj,serial-reaction-time,1,P,2,1,56,4213,0,3,245.90000009536743,133,H
2022-12-05T13:51:40Z,ov0ykrcj,serial-reaction-time,1,R,2,1,57,4213,0,3,486.40000009536743,333,R
2022-12-05T13:51:41Z,ov0ykrcj,serial-reaction-time,1,P,2,1,58,4213,0,4,475.60000014305115,334,H
2022-12-05T13:51:41Z,ov0ykrcj,serial-reaction-time,1,R,2,1,59,4213,0,4,419.89999985694885,344,H
2022-12-05T13:51:42Z,ov0ykrcj,serial-reaction-time,1,P,2,1,60,4213,0,2,454.89999985694885,442,H
2022-12-05T13:51:42Z,ov0ykrcj,serial-reaction-time,NA,R,2,1,61,4213,0,3,396,423,L
2022-12-05T13:51:43Z,ov0ykrcj,serial-reaction-time,1,R,2,0,61,4213,0,3,722.0999999046326,423,L
2022-12-05T13:51:43Z,ov0ykrcj,serial-reaction-time,1,P,2,1,62,4213,0,1,507.2999999523163,231,H
2022-12-05T13:51:44Z,ov0ykrcj,serial-reaction-time,1,R,2,1,63,4213,0,3,473.2999999523163,313,T
2022-12-05T13:51:45Z,ov0ykrcj,serial-reaction-time,1,P,2,1,64,4213,0,3,369.2000000476837,133,H
2022-12-05T13:51:45Z,ov0ykrcj,serial-reaction-time,1,R,2,1,65,4213,0,1,353.7999999523163,331,L
2022-12-05T13:51:46Z,ov0ykrcj,serial-reaction-time,1,P,2,1,66,4213,0,4,335.2999999523163,314,H
2022-12-05T13:51:46Z,ov0ykrcj,serial-reaction-time,1,R,2,1,67,4213,0,2,442.2000000476837,142,L
2022-12-05T13:51:47Z,ov0ykrcj,serial-reaction-time,1,P,2,1,68,4213,0,2,375.59999990463257,422,H
2022-12-05T13:51:47Z,ov0ykrcj,serial-reaction-time,1,R,2,1,69,4213,0,3,348.7000000476837,223,L
2022-12-05T13:51:48Z,ov0ykrcj,serial-reaction-time,1,P,2,1,70,4213,0,1,373,231,H
2022-12-05T13:51:48Z,ov0ykrcj,serial-reaction-time,1,R,2,1,71,4213,0,3,383,313,T
2022-12-05T13:51:49Z,ov0ykrcj,serial-reaction-time,1,P,2,1,72,4213,0,3,325.89999985694885,133,H
2022-12-05T13:51:49Z,ov0ykrcj,serial-reaction-time,1,R,2,1,73,4213,0,2,390.60000014305115,332,L
2022-12-05T13:51:50Z,ov0ykrcj,serial-reaction-time,1,P,2,1,74,4213,0,4,383.7999999523163,324,H
2022-12-05T13:51:50Z,ov0ykrcj,serial-reaction-time,1,R,2,1,75,4213,0,1,434.7999999523163,241,H
2022-12-05T13:51:51Z,ov0ykrcj,serial-reaction-time,1,P,2,1,76,4213,0,2,540.7999999523163,412,H
2022-12-05T13:51:52Z,ov0ykrcj,serial-reaction-time,1,R,2,1,77,4213,0,1,511.09999990463257,121,T
2022-12-05T13:51:52Z,ov0ykrcj,serial-reaction-time,1,P,2,1,78,4213,0,1,342,211,H
2022-12-05T13:51:53Z,ov0ykrcj,serial-reaction-time,NA,R,2,1,79,4213,0,3,351.39999985694885,113,H
2022-12-05T13:51:53Z,ov0ykrcj,serial-reaction-time,NA,R,2,0,79,4213,0,3,893.3999998569489,113,H
2022-12-05T13:51:54Z,ov0ykrcj,serial-reaction-time,1,R,2,0,79,4213,0,3,1447.5999999046326,113,H
2022-12-05T13:51:54Z,ov0ykrcj,serial-reaction-time,1,P,2,1,80,4213,0,3,323.69999980926514,133,H
2022-12-05T13:51:59Z,ov0ykrcj,html-keyboard-response,NA,NA,NA,NA,NA,NA,NA,NA,NA,NA,NA
2022-12-05T13:52:00Z,ov0ykrcj,html-keyboard-response,NA,NA,NA,NA,NA,NA,NA,NA,NA,NA,NA
2022-12-05T13:52:01Z,ov0ykrcj,serial-reaction-time,1,R,3,1,1,4213,0,3,544.4000000953674,3,X
2022-12-05T13:52:02Z,ov0ykrcj,serial-reaction-time,1,P,3,1,2,4213,0,4,333.09999990463257,34,X
2022-12-05T13:52:02Z,ov0ykrcj,serial-reaction-time,1,R,3,1,3,4213,0,2,347.2999999523163,342,L
2022-12-05T13:52:03Z,ov0ykrcj,serial-reaction-time,1,P,3,1,4,4213,0,2,316.2999999523163,422,H
2022-12-05T13:52:03Z,ov0ykrcj,serial-reaction-time,1,R,3,1,5,4213,0,1,339.09999990463257,221,H
2022-12-05T13:52:04Z,ov0ykrcj,serial-reaction-time,1,P,3,1,6,4213,0,1,352.69999980926514,211,H
2022-12-05T13:52:04Z,ov0ykrcj,serial-reaction-time,1,R,3,1,7,4213,0,2,365.7999999523163,112,L
2022-12-05T13:52:05Z,ov0ykrcj,serial-reaction-time,1,P,3,1,8,4213,0,3,344.90000009536743,123,H
2022-12-05T13:52:05Z,ov0ykrcj,serial-reaction-time,1,R,3,1,9,4213,0,1,290.90000009536743,231,H
2022-12-05T13:52:06Z,ov0ykrcj,serial-reaction-time,1,P,3,1,10,4213,0,4,391.59999990463257,314,H
2022-12-05T13:52:06Z,ov0ykrcj,serial-reaction-time,1,R,3,1,11,4213,0,4,330.90000009536743,144,L
2022-12-05T13:52:07Z,ov0ykrcj,serial-reaction-time,1,P,3,1,12,4213,0,2,345.09999990463257,442,H
2022-12-05T13:52:07Z,ov0ykrcj,serial-reaction-time,NA,R,3,1,13,4213,0,3,294.2000000476837,423,L
2022-12-05T13:52:07Z,ov0ykrcj,serial-reaction-time,1,R,3,0,13,4213,0,3,433.5,423,L
2022-12-05T13:52:08Z,ov0ykrcj,serial-reaction-time,NA,P,3,1,14,4213,0,1,347.40000009536743,231,H
2022-12-05T13:52:08Z,ov0ykrcj,serial-reaction-time,1,P,3,0,14,4213,0,1,644.7000000476837,231,H
2022-12-05T13:52:08Z,ov0ykrcj,serial-reaction-time,NA,R,3,1,15,4213,0,2,291.89999985694885,312,L
2022-12-05T13:52:09Z,ov0ykrcj,serial-reaction-time,1,R,3,0,15,4213,0,2,528.6999998092651,312,L
2022-12-05T13:52:09Z,ov0ykrcj,serial-reaction-time,1,P,3,1,16,4213,0,3,312.40000009536743,123,H
2022-12-05T13:52:09Z,ov0ykrcj,serial-reaction-time,1,R,3,1,17,4213,0,3,294.7999999523163,233,L
2022-12-05T13:52:10Z,ov0ykrcj,serial-reaction-time,1,P,3,1,18,4213,0,4,348.2999999523163,334,H
2022-12-05T13:52:10Z,ov0ykrcj,serial-reaction-time,1,R,3,1,19,4213,0,4,282.7000000476837,344,H
2022-12-05T13:52:11Z,ov0ykrcj,serial-reaction-time,1,P,3,1,20,4213,0,2,367.89999985694885,442,H
2022-12-05T13:52:11Z,ov0ykrcj,serial-reaction-time,1,R,3,1,21,4213,0,1,294.2999999523163,421,L
2022-12-05T13:52:12Z,ov0ykrcj,serial-reaction-time,1,P,3,1,22,4213,0,1,393.69999980926514,211,H
2022-12-05T13:52:12Z,ov0ykrcj,serial-reaction-time,1,R,3,1,23,4213,0,2,301,112,L
2022-12-05T13:52:13Z,ov0ykrcj,serial-reaction-time,1,P,3,1,24,4213,0,3,374.60000014305115,123,H
2022-12-05T13:52:13Z,ov0ykrcj,serial-reaction-time,NA,R,3,1,25,4213,0,2,395.90000009536743,232,T
2022-12-05T13:52:14Z,ov0ykrcj,serial-reaction-time,1,R,3,0,25,4213,0,2,687.9000000953674,232,T
2022-12-05T13:52:14Z,ov0ykrcj,serial-reaction-time,1,P,3,1,26,4213,0,4,309.09999990463257,324,H
2022-12-05T13:52:14Z,ov0ykrcj,serial-reaction-time,1,R,3,1,27,4213,0,4,273.39999985694885,244,L
2022-12-05T13:52:15Z,ov0ykrcj,serial-reaction-time,1,P,3,1,28,4213,0,2,284,442,H
2022-12-05T13:52:15Z,ov0ykrcj,serial-reaction-time,1,R,3,1,29,4213,0,1,335.5,421,L
2022-12-05T13:52:16Z,ov0ykrcj,serial-reaction-time,1,P,3,1,30,4213,0,1,298.7000000476837,211,H
2022-12-05T13:52:16Z,ov0ykrcj,serial-reaction-time,1,R,3,1,31,4213,0,4,378,114,L
2022-12-05T13:52:17Z,ov0ykrcj,serial-reaction-time,1,P,3,1,32,4213,0,3,350.59999990463257,143,H
2022-12-05T13:52:17Z,ov0ykrcj,serial-reaction-time,1,R,3,1,33,4213,0,2,444,432,H
2022-12-05T13:52:18Z,ov0ykrcj,serial-reaction-time,1,P,3,1,34,4213,0,4,319.5,324,H
2022-12-05T13:52:18Z,ov0ykrcj,serial-reaction-time,NA,R,3,1,35,4213,0,3,318.5,243,L
2022-12-05T13:52:18Z,ov0ykrcj,serial-reaction-time,1,R,3,0,35,4213,0,3,480.90000009536743,243,L
2022-12-05T13:52:20Z,ov0ykrcj,serial-reaction-time,1,P,3,1,36,4213,0,2,1046.7999999523165,432,H
2022-12-05T13:52:20Z,ov0ykrcj,serial-reaction-time,1,R,3,1,37,4213,0,1,310.59999990463257,321,L
2022-12-05T13:52:21Z,ov0ykrcj,serial-reaction-time,1,P,3,1,38,4213,0,1,536.2999999523163,211,H
2022-12-05T13:52:21Z,ov0ykrcj,serial-reaction-time,1,R,3,1,39,4213,0,1,323.5,111,R
2022-12-05T13:52:22Z,ov0ykrcj,serial-reaction-time,NA,P,3,1,40,4213,0,3,344.59999990463257,113,H
2022-12-05T13:52:22Z,ov0ykrcj,serial-reaction-time,1,P,3,0,40,4213,0,3,628.6999998092651,113,H
2022-12-05T13:52:23Z,ov0ykrcj,serial-reaction-time,1,R,3,1,41,4213,0,4,355.7000000476837,134,L
2022-12-05T13:52:23Z,ov0ykrcj,serial-reaction-time,1,P,3,1,42,4213,0,4,322.5,344,H
2022-12-05T13:52:23Z,ov0ykrcj,serial-reaction-time,NA,R,3,1,43,4213,0,1,330.5,441,L
2022-12-05T13:52:23Z,ov0ykrcj,serial-reaction-time,1,R,3,0,43,4213,0,1,359.2999999523163,441,L
2022-12-05T13:52:24Z,ov0ykrcj,serial-reaction-time,1,P,3,1,44,4213,0,2,404.60000014305115,412,H
2022-12-05T13:52:24Z,ov0ykrcj,serial-reaction-time,1,R,3,1,45,4213,0,2,309.60000014305115,122,L
2022-12-05T13:52:25Z,ov0ykrcj,serial-reaction-time,1,P,3,1,46,4213,0,1,309.7999999523163,221,H
2022-12-05T13:52:25Z,ov0ykrcj,serial-reaction-time,1,R,3,1,47,4213,0,3,306.7000000476837,213,L
2022-12-05T13:52:26Z,ov0ykrcj,serial-reaction-time,1,P,3,1,48,4213,0,3,291.60000014305115,133,H
2022-12-05T13:52:26Z,ov0ykrcj,serial-reaction-time,1,R,3,1,49,4213,0,3,370.2999999523163,333,R
2022-12-05T13:52:27Z,ov0ykrcj,serial-reaction-time,1,P,3,1,50,4213,0,4,341.69999980926514,334,H
2022-12-05T13:52:27Z,ov0ykrcj,serial-reaction-time,1,R,3,1,51,4213,0,4,357.90000009536743,344,H
2022-12-05T13:52:28Z,ov0ykrcj,serial-reaction-time,NA,P,3,1,52,4213,0,2,325.7999999523163,442,H
2022-12-05T13:52:28Z,ov0ykrcj,serial-reaction-time,1,P,3,0,52,4213,0,2,332.39999985694885,442,H
2022-12-05T13:52:28Z,ov0ykrcj,serial-reaction-time,1,R,3,1,53,4213,0,2,328.89999985694885,422,H
2022-12-05T13:52:29Z,ov0ykrcj,serial-reaction-time,1,P,3,1,54,4213,0,1,308.90000009536743,221,H
2022-12-05T13:52:29Z,ov0ykrcj,serial-reaction-time,NA,R,3,1,55,4213,0,2,347.7999999523163,212,T
2022-12-05T13:52:29Z,ov0ykrcj,serial-reaction-time,1,R,3,0,55,4213,0,2,350,212,T
2022-12-05T13:52:30Z,ov0ykrcj,serial-reaction-time,1,P,3,1,56,4213,0,3,383.09999990463257,123,H
2022-12-05T13:52:30Z,ov0ykrcj,serial-reaction-time,1,R,3,1,57,4213,0,1,353.7000000476837,231,H
2022-12-05T13:52:31Z,ov0ykrcj,serial-reaction-time,1,P,3,1,58,4213,0,4,360.7000000476837,314,H
2022-12-05T13:52:31Z,ov0ykrcj,serial-reaction-time,1,R,3,1,59,4213,0,3,518.7999999523163,143,H
2022-12-05T13:52:32Z,ov0ykrcj,serial-reaction-time,1,P,3,1,60,4213,0,2,368.30000019073486,432,H
2022-12-05T13:52:32Z,ov0ykrcj,serial-reaction-time,NA,R,3,1,61,4213,0,3,358.2999999523163,323,T
2022-12-05T13:52:33Z,ov0ykrcj,serial-reaction-time,1,R,3,0,61,4213,0,3,713.0999999046326,323,T
2022-12-05T13:52:33Z,ov0ykrcj,serial-reaction-time,1,P,3,1,62,4213,0,1,510.39999985694885,231,H
2022-12-05T13:52:34Z,ov0ykrcj,serial-reaction-time,1,R,3,1,63,4213,0,1,328.2000000476837,311,L
2022-12-05T13:52:34Z,ov0ykrcj,serial-reaction-time,1,P,3,1,64,4213,0,3,302.09999990463257,113,H
2022-12-05T13:52:35Z,ov0ykrcj,serial-reaction-time,1,R,3,1,65,4213,0,1,327.09999990463257,131,T
2022-12-05T13:52:35Z,ov0ykrcj,serial-reaction-time,1,P,3,1,66,4213,0,4,458.40000009536743,314,H
2022-12-05T13:52:36Z,ov0ykrcj,serial-reaction-time,1,R,3,1,67,4213,0,3,477.7999999523163,143,H
2022-12-05T13:52:37Z,ov0ykrcj,serial-reaction-time,1,P,3,1,68,4213,0,2,453.39999985694885,432,H
2022-12-05T13:52:37Z,ov0ykrcj,serial-reaction-time,1,R,3,1,69,4213,0,1,374.2000000476837,321,L
2022-12-05T13:52:38Z,ov0ykrcj,serial-reaction-time,1,P,3,1,70,4213,0,1,381.5,211,H
2022-12-05T13:52:38Z,ov0ykrcj,serial-reaction-time,1,R,3,1,71,4213,0,3,402,113,H
2022-12-05T13:52:39Z,ov0ykrcj,serial-reaction-time,1,P,3,1,72,4213,0,3,316.40000009536743,133,H
2022-12-05T13:52:39Z,ov0ykrcj,serial-reaction-time,1,R,3,1,73,4213,0,2,386.90000009536743,332,L
2022-12-05T13:52:40Z,ov0ykrcj,serial-reaction-time,1,P,3,1,74,4213,0,4,354.2000000476837,324,H
2022-12-05T13:52:40Z,ov0ykrcj,serial-reaction-time,NA,R,3,1,75,4213,0,3,375.40000009536743,243,L
2022-12-05T13:52:40Z,ov0ykrcj,serial-reaction-time,1,R,3,0,75,4213,0,3,638.5999999046326,243,L
2022-12-05T13:52:41Z,ov0ykrcj,serial-reaction-time,1,P,3,1,76,4213,0,2,340.39999985694885,432,H
2022-12-05T13:52:41Z,ov0ykrcj,serial-reaction-time,1,R,3,1,77,4213,0,1,356.7000000476837,321,L
2022-12-05T13:52:42Z,ov0ykrcj,serial-reaction-time,1,P,3,1,78,4213,0,1,306.2000000476837,211,H
2022-12-05T13:52:42Z,ov0ykrcj,serial-reaction-time,NA,R,3,1,79,4213,0,4,356.2000000476837,114,L
2022-12-05T13:52:43Z,ov0ykrcj,serial-reaction-time,1,R,3,0,79,4213,0,4,556.3000001907349,114,L
2022-12-05T13:52:43Z,ov0ykrcj,serial-reaction-time,1,P,3,1,80,4213,0,3,369.59999990463257,143,H
2022-12-05T13:52:48Z,ov0ykrcj,html-keyboard-response,NA,NA,NA,NA,NA,NA,NA,NA,NA,NA,NA
2022-12-05T13:52:49Z,ov0ykrcj,html-keyboard-response,NA,NA,NA,NA,NA,NA,NA,NA,NA,NA,NA
2022-12-05T13:52:51Z,ov0ykrcj,serial-reaction-time,1,R,4,1,1,4213,0,1,442.7999999523163,1,X
2022-12-05T13:52:51Z,ov0ykrcj,serial-reaction-time,1,P,4,1,2,4213,0,4,346.7000000476837,14,X
2022-12-05T13:52:52Z,ov0ykrcj,serial-reaction-time,1,R,4,1,3,4213,0,4,362.7000000476837,144,L
2022-12-05T13:52:52Z,ov0ykrcj,serial-reaction-time,1,P,4,1,4,4213,0,2,408.89999985694885,442,H
2022-12-05T13:52:53Z,ov0ykrcj,serial-reaction-time,1,R,4,1,5,4213,0,1,418.2000000476837,421,L
2022-12-05T13:52:53Z,ov0ykrcj,serial-reaction-time,1,P,4,1,6,4213,0,1,331.59999990463257,211,H
2022-12-05T13:52:54Z,ov0ykrcj,serial-reaction-time,1,R,4,1,7,4213,0,3,331.2000000476837,113,H
2022-12-05T13:52:54Z,ov0ykrcj,serial-reaction-time,1,P,4,1,8,4213,0,3,370.30000019073486,133,H
2022-12-05T13:52:55Z,ov0ykrcj,serial-reaction-time,1,R,4,1,9,4213,0,2,335.7000000476837,332,L
2022-12-05T13:52:55Z,ov0ykrcj,serial-reaction-time,1,P,4,1,10,4213,0,4,386.09999990463257,324,H
2022-12-05T13:52:56Z,ov0ykrcj,serial-reaction-time,NA,R,4,1,11,4213,0,3,339.2999999523163,243,L
2022-12-05T13:52:56Z,ov0ykrcj,serial-reaction-time,1,R,4,0,11,4213,0,3,646.7999999523163,243,L
2022-12-05T13:52:56Z,ov0ykrcj,serial-reaction-time,NA,P,4,1,12,4213,0,2,344.09999990463257,432,H
2022-12-05T13:52:57Z,ov0ykrcj,serial-reaction-time,1,P,4,0,12,4213,0,2,706.3999998569489,432,H
2022-12-05T13:52:57Z,ov0ykrcj,serial-reaction-time,1,R,4,1,13,4213,0,2,343.2999999523163,322,L
2022-12-05T13:52:58Z,ov0ykrcj,serial-reaction-time,1,P,4,1,14,4213,0,1,280.40000009536743,221,H
2022-12-05T13:52:58Z,ov0ykrcj,serial-reaction-time,1,R,4,1,15,4213,0,4,361.2999999523163,214,L
2022-12-05T13:52:59Z,ov0ykrcj,serial-reaction-time,1,P,4,1,16,4213,0,3,324.59999990463257,143,H
2022-12-05T13:52:59Z,ov0ykrcj,serial-reaction-time,1,R,4,1,17,4213,0,2,326,432,H
2022-12-05T13:53:00Z,ov0ykrcj,serial-reaction-time,1,P,4,1,18,4213,0,4,397.59999990463257,324,H
2022-12-05T13:53:00Z,ov0ykrcj,serial-reaction-time,1,R,4,1,19,4213,0,2,351.60000014305115,242,T
2022-12-05T13:53:01Z,ov0ykrcj,serial-reaction-time,1,P,4,1,20,4213,0,2,295.40000009536743,422,H
2022-12-05T13:53:01Z,ov0ykrcj,serial-reaction-time,1,R,4,1,21,4213,0,2,306.2999999523163,222,R
2022-12-05T13:53:02Z,ov0ykrcj,serial-reaction-time,1,P,4,1,22,4213,0,1,337.60000014305115,221,H
2022-12-05T13:53:02Z,ov0ykrcj,serial-reaction-time,1,R,4,1,23,4213,0,1,282.40000009536743,211,H
2022-12-05T13:53:02Z,ov0ykrcj,serial-reaction-time,1,P,4,1,24,4213,0,3,404.69999980926514,113,H
2022-12-05T13:53:03Z,ov0ykrcj,serial-reaction-time,1,R,4,1,25,4213,0,3,276.7999999523163,133,H
2022-12-05T13:53:03Z,ov0ykrcj,serial-reaction-time,1,P,4,1,26,4213,0,4,363.60000014305115,334,H
2022-12-05T13:53:04Z,ov0ykrcj,serial-reaction-time,1,R,4,1,27,4213,0,2,448.90000009536743,342,L
2022-12-05T13:53:04Z,ov0ykrcj,serial-reaction-time,1,P,4,1,28,4213,0,2,336.5,422,H
2022-12-05T13:53:05Z,ov0ykrcj,serial-reaction-time,1,R,4,1,29,4213,0,2,279.5,222,R
2022-12-05T13:53:06Z,ov0ykrcj,serial-reaction-time,1,P,4,1,30,4213,0,1,490.2999999523163,221,H
2022-12-05T13:53:06Z,ov0ykrcj,serial-reaction-time,1,R,4,1,31,4213,0,4,429.80000019073486,214,L
2022-12-05T13:53:07Z,ov0ykrcj,serial-reaction-time,1,P,4,1,32,4213,0,3,470.7999999523163,143,H
2022-12-05T13:53:07Z,ov0ykrcj,serial-reaction-time,1,R,4,1,33,4213,0,3,362.60000014305115,433,L
2022-12-05T13:53:08Z,ov0ykrcj,serial-reaction-time,1,P,4,1,34,4213,0,4,533.6000001430511,334,H
2022-12-05T13:53:08Z,ov0ykrcj,serial-reaction-time,1,R,4,1,35,4213,0,2,360.7999999523163,342,L
2022-12-05T13:53:09Z,ov0ykrcj,serial-reaction-time,1,P,4,1,36,4213,0,2,300.59999990463257,422,H
2022-12-05T13:53:09Z,ov0ykrcj,serial-reaction-time,1,R,4,1,37,4213,0,2,300.90000009536743,222,R
2022-12-05T13:53:10Z,ov0ykrcj,serial-reaction-time,1,P,4,1,38,4213,0,1,346.7000000476837,221,H
2022-12-05T13:53:10Z,ov0ykrcj,serial-reaction-time,1,R,4,1,39,4213,0,3,378.40000009536743,213,L
2022-12-05T13:53:11Z,ov0ykrcj,serial-reaction-time,1,P,4,1,40,4213,0,3,332.40000009536743,133,H
2022-12-05T13:53:11Z,ov0ykrcj,serial-reaction-time,1,R,4,1,41,4213,0,3,346.5,333,R
2022-12-05T13:53:12Z,ov0ykrcj,serial-reaction-time,1,P,4,1,42,4213,0,4,385.60000014305115,334,H
2022-12-05T13:53:12Z,ov0ykrcj,serial-reaction-time,1,R,4,1,43,4213,0,4,375.40000009536743,344,H
2022-12-05T13:53:13Z,ov0ykrcj,serial-reaction-time,1,P,4,1,44,4213,0,2,352.7999999523163,442,H
2022-12-05T13:53:13Z,ov0ykrcj,serial-reaction-time,1,R,4,1,45,4213,0,2,321.7000000476837,422,H
2022-12-05T13:53:14Z,ov0ykrcj,serial-reaction-time,1,P,4,1,46,4213,0,1,343.2000000476837,221,H
2022-12-05T13:53:14Z,ov0ykrcj,serial-reaction-time,1,R,4,1,47,4213,0,3,403.5,213,L
2022-12-05T13:53:15Z,ov0ykrcj,serial-reaction-time,1,P,4,1,48,4213,0,3,273.39999985694885,133,H
2022-12-05T13:53:15Z,ov0ykrcj,serial-reaction-time,1,R,4,1,49,4213,0,1,338.60000014305115,331,L
2022-12-05T13:53:16Z,ov0ykrcj,serial-reaction-time,1,P,4,1,50,4213,0,4,397.40000009536743,314,H
2022-12-05T13:53:16Z,ov0ykrcj,serial-reaction-time,NA,R,4,1,51,4213,0,3,347.2999999523163,143,H
2022-12-05T13:53:16Z,ov0ykrcj,serial-reaction-time,1,R,4,0,51,4213,0,3,514.2000000476837,143,H
2022-12-05T13:53:17Z,ov0ykrcj,serial-reaction-time,1,P,4,1,52,4213,0,2,392.2000000476837,432,H
2022-12-05T13:53:17Z,ov0ykrcj,serial-reaction-time,1,R,4,1,53,4213,0,2,313.2999999523163,322,L
2022-12-05T13:53:18Z,ov0ykrcj,serial-reaction-time,1,P,4,1,54,4213,0,1,389.7999999523163,221,H
2022-12-05T13:53:18Z,ov0ykrcj,serial-reaction-time,1,R,4,1,55,4213,0,4,445.7999999523163,214,L
2022-12-05T13:53:19Z,ov0ykrcj,serial-reaction-time,1,P,4,1,56,4213,0,3,549.6000001430511,143,H
2022-12-05T13:53:20Z,ov0ykrcj,serial-reaction-time,1,R,4,1,57,4213,0,3,341.5,433,L
2022-12-05T13:53:20Z,ov0ykrcj,serial-reaction-time,1,P,4,1,58,4213,0,4,479.5,334,H
2022-12-05T13:53:21Z,ov0ykrcj,serial-reaction-time,1,R,4,1,59,4213,0,1,409.5,341,L
2022-12-05T13:53:22Z,ov0ykrcj,serial-reaction-time,1,P,4,1,60,4213,0,2,634.7999999523163,412,H
2022-12-05T13:53:22Z,ov0ykrcj,serial-reaction-time,1,R,4,1,61,4213,0,1,489.09999990463257,121,T
2022-12-05T13:53:23Z,ov0ykrcj,serial-reaction-time,1,P,4,1,62,4213,0,1,476,211,H
2022-12-05T13:53:23Z,ov0ykrcj,serial-reaction-time,1,R,4,1,63,4213,0,4,476.2000000476837,114,L
2022-12-05T13:53:24Z,ov0ykrcj,serial-reaction-time,1,P,4,1,64,4213,0,3,467.7999999523163,143,H
2022-12-05T13:53:25Z,ov0ykrcj,serial-reaction-time,1,R,4,1,65,4213,0,4,456.7000000476837,434,T
2022-12-05T13:53:25Z,ov0ykrcj,serial-reaction-time,1,P,4,1,66,4213,0,4,343.90000009536743,344,H
2022-12-05T13:53:26Z,ov0ykrcj,serial-reaction-time,1,R,4,1,67,4213,0,1,529.7999999523163,441,L
2022-12-05T13:53:26Z,ov0ykrcj,serial-reaction-time,NA,P,4,1,68,4213,0,2,300,412,H
2022-12-05T13:53:26Z,ov0ykrcj,serial-reaction-time,1,P,4,0,68,4213,0,2,566.0999999046326,412,H
2022-12-05T13:53:27Z,ov0ykrcj,serial-reaction-time,1,R,4,1,69,4213,0,4,469.2000000476837,124,L
2022-12-05T13:53:28Z,ov0ykrcj,serial-reaction-time,1,P,4,1,70,4213,0,1,432.7000000476837,241,H
2022-12-05T13:53:28Z,ov0ykrcj,serial-reaction-time,1,R,4,1,71,4213,0,2,425,412,H
2022-12-05T13:53:29Z,ov0ykrcj,serial-reaction-time,1,P,4,1,72,4213,0,3,358.59999990463257,123,H
2022-12-05T13:53:29Z,ov0ykrcj,serial-reaction-time,1,R,4,1,73,4213,0,1,366.09999990463257,231,H
2022-12-05T13:53:30Z,ov0ykrcj,serial-reaction-time,1,P,4,1,74,4213,0,4,460.40000009536743,314,H
2022-12-05T13:53:30Z,ov0ykrcj,serial-reaction-time,1,R,4,1,75,4213,0,1,375.2000000476837,141,T
2022-12-05T13:53:31Z,ov0ykrcj,serial-reaction-time,1,P,4,1,76,4213,0,2,365.89999985694885,412,H
2022-12-05T13:53:31Z,ov0ykrcj,serial-reaction-time,1,R,4,1,77,4213,0,3,385.89999985694885,123,H
2022-12-05T13:53:32Z,ov0ykrcj,serial-reaction-time,1,P,4,1,78,4213,0,1,329.5,231,H
2022-12-05T13:53:32Z,ov0ykrcj,serial-reaction-time,1,R,4,1,79,4213,0,1,352.7999999523163,311,L
2022-12-05T13:53:33Z,ov0ykrcj,serial-reaction-time,1,P,4,1,80,4213,0,3,508.2999999523163,113,H
2022-12-05T13:53:38Z,ov0ykrcj,html-keyboard-response,NA,NA,NA,NA,NA,NA,NA,NA,NA,NA,NA
2022-12-05T13:53:39Z,ov0ykrcj,html-keyboard-response,NA,NA,NA,NA,NA,NA,NA,NA,NA,NA,NA
2022-12-05T13:53:40Z,ov0ykrcj,serial-reaction-time,1,R,5,1,1,4213,0,1,404.2999999523163,1,X
2022-12-05T13:53:41Z,ov0ykrcj,serial-reaction-time,1,P,5,1,2,4213,0,4,355.5,14,X
2022-12-05T13:53:41Z,ov0ykrcj,serial-reaction-time,1,R,5,1,3,4213,0,4,296.90000009536743,144,L
2022-12-05T13:53:42Z,ov0ykrcj,serial-reaction-time,1,P,5,1,4,4213,0,2,433.39999985694885,442,H
2022-12-05T13:53:42Z,ov0ykrcj,serial-reaction-time,1,R,5,1,5,4213,0,1,537.7000000476837,421,L
2022-12-05T13:53:43Z,ov0ykrcj,serial-reaction-time,1,P,5,1,6,4213,0,1,271.7000000476837,211,H
2022-12-05T13:53:43Z,ov0ykrcj,serial-reaction-time,1,R,5,1,7,4213,0,2,360.7000000476837,112,L
2022-12-05T13:53:44Z,ov0ykrcj,serial-reaction-time,1,P,5,1,8,4213,0,3,326.39999985694885,123,H
2022-12-05T13:53:44Z,ov0ykrcj,serial-reaction-time,1,R,5,1,9,4213,0,1,348.39999985694885,231,H
2022-12-05T13:53:45Z,ov0ykrcj,serial-reaction-time,1,P,5,1,10,4213,0,4,330.40000009536743,314,H
2022-12-05T13:53:45Z,ov0ykrcj,serial-reaction-time,1,R,5,1,11,4213,0,4,291.19999980926514,144,L
2022-12-05T13:53:46Z,ov0ykrcj,serial-reaction-time,1,P,5,1,12,4213,0,2,370.2999999523163,442,H
2022-12-05T13:53:46Z,ov0ykrcj,serial-reaction-time,1,R,5,1,13,4213,0,3,350.39999985694885,423,L
2022-12-05T13:53:47Z,ov0ykrcj,serial-reaction-time,1,P,5,1,14,4213,0,1,367.7999999523163,231,H
2022-12-05T13:53:47Z,ov0ykrcj,serial-reaction-time,NA,R,5,1,15,4213,0,2,321.69999980926514,312,L
2022-12-05T13:53:47Z,ov0ykrcj,serial-reaction-time,1,R,5,0,15,4213,0,2,639.1999998092651,312,L
2022-12-05T13:53:48Z,ov0ykrcj,serial-reaction-time,1,P,5,1,16,4213,0,3,533,123,H
2022-12-05T13:53:48Z,ov0ykrcj,serial-reaction-time,1,R,5,1,17,4213,0,3,311.19999980926514,233,L
2022-12-05T13:53:49Z,ov0ykrcj,serial-reaction-time,1,P,5,1,18,4213,0,4,315,334,H
2022-12-05T13:53:49Z,ov0ykrcj,serial-reaction-time,1,R,5,1,19,4213,0,2,326.09999990463257,342,L
2022-12-05T13:53:50Z,ov0ykrcj,serial-reaction-time,1,P,5,1,20,4213,0,2,342.5,422,H
2022-12-05T13:53:50Z,ov0ykrcj,serial-reaction-time,1,R,5,1,21,4213,0,4,365.39999985694885,224,L
2022-12-05T13:53:51Z,ov0ykrcj,serial-reaction-time,1,P,5,1,22,4213,0,1,314.90000009536743,241,H
2022-12-05T13:53:51Z,ov0ykrcj,serial-reaction-time,1,R,5,1,23,4213,0,1,337.59999990463257,411,L
2022-12-05T13:53:52Z,ov0ykrcj,serial-reaction-time,1,P,5,1,24,4213,0,3,323.90000009536743,113,H
2022-12-05T13:53:52Z,ov0ykrcj,serial-reaction-time,1,R,5,1,25,4213,0,1,354.2000000476837,131,T
2022-12-05T13:53:53Z,ov0ykrcj,serial-reaction-time,1,P,5,1,26,4213,0,4,395.2999999523163,314,H
2022-12-05T13:53:53Z,ov0ykrcj,serial-reaction-time,1,R,5,1,27,4213,0,4,352.30000019073486,144,L
2022-12-05T13:53:54Z,ov0ykrcj,serial-reaction-time,1,P,5,1,28,4213,0,2,396.59999990463257,442,H
2022-12-05T13:53:54Z,ov0ykrcj,serial-reaction-time,1,R,5,1,29,4213,0,4,415.09999990463257,424,T
2022-12-05T13:53:55Z,ov0ykrcj,serial-reaction-time,1,P,5,1,30,4213,0,1,386.2999999523163,241,H
2022-12-05T13:53:55Z,ov0ykrcj,serial-reaction-time,1,R,5,1,31,4213,0,4,375.7999999523163,414,T
2022-12-05T13:53:56Z,ov0ykrcj,serial-reaction-time,1,P,5,1,32,4213,0,3,437.09999990463257,143,H
2022-12-05T13:53:56Z,ov0ykrcj,serial-reaction-time,1,R,5,1,33,4213,0,3,340.5,433,L
2022-12-05T13:53:57Z,ov0ykrcj,serial-reaction-time,1,P,5,1,34,4213,0,4,341.60000014305115,334,H
2022-12-05T13:53:57Z,ov0ykrcj,serial-reaction-time,1,R,5,1,35,4213,0,3,341,343,T
2022-12-05T13:53:58Z,ov0ykrcj,serial-reaction-time,NA,P,5,1,36,4213,0,2,330.40000009536743,432,H
2022-12-05T13:53:58Z,ov0ykrcj,serial-reaction-time,1,P,5,0,36,4213,0,2,619.9000000953674,432,H
2022-12-05T13:53:59Z,ov0ykrcj,serial-reaction-time,1,R,5,1,37,4213,0,1,296.09999990463257,321,L
2022-12-05T13:53:59Z,ov0ykrcj,serial-reaction-time,1,P,5,1,38,4213,0,1,401,211,H
2022-12-05T13:54:00Z,ov0ykrcj,serial-reaction-time,NA,R,5,1,39,4213,0,4,380,114,L
2022-12-05T13:54:00Z,ov0ykrcj,serial-reaction-time,1,R,5,0,39,4213,0,4,705,114,L
2022-12-05T13:54:01Z,ov0ykrcj,serial-reaction-time,1,P,5,1,40,4213,0,3,391.2000000476837,143,H
2022-12-05T13:54:01Z,ov0ykrcj,serial-reaction-time,1,R,5,1,41,4213,0,4,405.39999985694885,434,T
2022-12-05T13:54:02Z,ov0ykrcj,serial-reaction-time,1,P,5,1,42,4213,0,4,321.59999990463257,344,H
2022-12-05T13:54:02Z,ov0ykrcj,serial-reaction-time,NA,R,5,1,43,4213,0,2,307,442,H
2022-12-05T13:54:02Z,ov0ykrcj,serial-reaction-time,1,R,5,0,43,4213,0,2,637.4000000953674,442,H
2022-12-05T13:54:03Z,ov0ykrcj,serial-reaction-time,1,P,5,1,44,4213,0,2,317.7000000476837,422,H
2022-12-05T13:54:03Z,ov0ykrcj,serial-reaction-time,1,R,5,1,45,4213,0,1,297.69999980926514,221,H
2022-12-05T13:54:04Z,ov0ykrcj,serial-reaction-time,1,P,5,1,46,4213,0,1,307.5,211,H
2022-12-05T13:54:04Z,ov0ykrcj,serial-reaction-time,1,R,5,1,47,4213,0,3,347.5,113,H
2022-12-05T13:54:05Z,ov0ykrcj,serial-reaction-time,1,P,5,1,48,4213,0,3,311.19999980926514,133,H
2022-12-05T13:54:05Z,ov0ykrcj,serial-reaction-time,1,R,5,1,49,4213,0,2,387.2999999523163,332,L
2022-12-05T13:54:06Z,ov0ykrcj,serial-reaction-time,1,P,5,1,50,4213,0,4,355.2000000476837,324,H
2022-12-05T13:54:06Z,ov0ykrcj,serial-reaction-time,1,R,5,1,51,4213,0,4,317.59999990463257,244,L
2022-12-05T13:54:07Z,ov0ykrcj,serial-reaction-time,1,P,5,1,52,4213,0,2,345,442,H
2022-12-05T13:54:07Z,ov0ykrcj,serial-reaction-time,1,R,5,1,53,4213,0,1,374.30000019073486,421,L
2022-12-05T13:54:08Z,ov0ykrcj,serial-reaction-time,1,P,5,1,54,4213,0,1,289.39999985694885,211,H
2022-12-05T13:54:08Z,ov0ykrcj,serial-reaction-time,1,R,5,1,55,4213,0,2,426.09999990463257,112,L
2022-12-05T13:54:09Z,ov0ykrcj,serial-reaction-time,1,P,5,1,56,4213,0,3,492.40000009536743,123,H
2022-12-05T13:54:09Z,ov0ykrcj,serial-reaction-time,1,R,5,1,57,4213,0,4,384.90000009536743,234,L
2022-12-05T13:54:10Z,ov0ykrcj,serial-reaction-time,1,P,5,1,58,4213,0,4,346.59999990463257,344,H
2022-12-05T13:54:10Z,ov0ykrcj,serial-reaction-time,1,R,5,1,59,4213,0,1,408.7000000476837,441,L
2022-12-05T13:54:11Z,ov0ykrcj,serial-reaction-time,1,P,5,1,60,4213,0,2,374.5,412,H
2022-12-05T13:54:11Z,ov0ykrcj,serial-reaction-time,1,R,5,1,61,4213,0,1,332.09999990463257,121,T
2022-12-05T13:54:12Z,ov0ykrcj,serial-reaction-time,1,P,5,1,62,4213,0,1,422.40000009536743,211,H
2022-12-05T13:54:12Z,ov0ykrcj,serial-reaction-time,1,R,5,1,63,4213,0,4,438.7999999523163,114,L
2022-12-05T13:54:13Z,ov0ykrcj,serial-reaction-time,1,P,5,1,64,4213,0,3,418.30000019073486,143,H
2022-12-05T13:54:14Z,ov0ykrcj,serial-reaction-time,1,R,5,1,65,4213,0,4,426.2000000476837,434,T
2022-12-05T13:54:14Z,ov0ykrcj,serial-reaction-time,1,P,5,1,66,4213,0,4,327.5,344,H
2022-12-05T13:54:15Z,ov0ykrcj,serial-reaction-time,NA,R,5,1,67,4213,0,3,403.7999999523163,443,L
2022-12-05T13:54:15Z,ov0ykrcj,serial-reaction-time,1,R,5,0,67,4213,0,3,508.60000014305115,443,L
2022-12-05T13:54:15Z,ov0ykrcj,serial-reaction-time,1,P,5,1,68,4213,0,2,415.59999990463257,432,H
2022-12-05T13:54:16Z,ov0ykrcj,serial-reaction-time,1,R,5,1,69,4213,0,3,530.7999999523163,323,T
2022-12-05T13:54:16Z,ov0ykrcj,serial-reaction-time,1,P,5,1,70,4213,0,1,364,231,H
2022-12-05T13:54:17Z,ov0ykrcj,serial-reaction-time,1,R,5,1,71,4213,0,3,384.10000014305115,313,T
2022-12-05T13:54:17Z,ov0ykrcj,serial-reaction-time,1,P,5,1,72,4213,0,3,285.39999985694885,133,H
2022-12-05T13:54:18Z,ov0ykrcj,serial-reaction-time,1,R,5,1,73,4213,0,1,310,331,L
2022-12-05T13:54:18Z,ov0ykrcj,serial-reaction-time,1,P,5,1,74,4213,0,4,365.7000000476837,314,H
2022-12-05T13:54:19Z,ov0ykrcj,serial-reaction-time,1,R,5,1,75,4213,0,2,430.7999999523163,142,L
2022-12-05T13:54:19Z,ov0ykrcj,serial-reaction-time,1,P,5,1,76,4213,0,2,288.69999980926514,422,H
2022-12-05T13:54:20Z,ov0ykrcj,serial-reaction-time,1,R,5,1,77,4213,0,4,334.69999980926514,224,L
2022-12-05T13:54:20Z,ov0ykrcj,serial-reaction-time,1,P,5,1,78,4213,0,1,366.09999990463257,241,H
2022-12-05T13:54:21Z,ov0ykrcj,serial-reaction-time,1,R,5,1,79,4213,0,1,305.19999980926514,411,L
2022-12-05T13:54:21Z,ov0ykrcj,serial-reaction-time,1,P,5,1,80,4213,0,3,349.5,113,H
2022-12-05T13:54:26Z,ov0ykrcj,html-keyboard-response,NA,NA,NA,NA,NA,NA,NA,NA,NA,NA,NA
2022-12-05T13:54:27Z,ov0ykrcj,html-keyboard-response,NA,NA,NA,NA,NA,NA,NA,NA,NA,NA,NA
2022-12-05T13:54:28Z,ov0ykrcj,fullscreen,NA,NA,NA,NA,NA,NA,NA,NA,NA,NA,NA
2022-12-06T10:29:33Z,td18pjfx,fullscreen,NA,NA,NA,NA,NA,NA,NA,NA,NA,NA,NA
2022-12-06T10:29:34Z,td18pjfx,html-keyboard-response,NA,NA,NA,NA,NA,NA,NA,NA,NA,NA,NA
2022-12-06T10:29:36Z,td18pjfx,serial-reaction-time,1,R,1,1,1,1243,0,4,436.2999999523163,4,X
2022-12-06T10:29:37Z,td18pjfx,serial-reaction-time,1,P,1,1,2,1243,0,1,453.7999999523163,41,X
2022-12-06T10:29:37Z,td18pjfx,serial-reaction-time,1,R,1,1,3,1243,0,2,388,412,L
2022-12-06T10:29:37Z,td18pjfx,serial-reaction-time,1,P,1,1,4,1243,0,2,277.89999985694885,122,H
2022-12-06T10:29:38Z,td18pjfx,serial-reaction-time,1,R,1,1,5,1243,0,1,333.89999985694885,221,L
2022-12-06T10:29:38Z,td18pjfx,serial-reaction-time,1,P,1,1,6,1243,0,4,397.7999999523163,214,H
2022-12-06T10:29:39Z,td18pjfx,serial-reaction-time,1,R,1,1,7,1243,0,4,317.59999990463257,144,L
2022-12-06T10:29:39Z,td18pjfx,serial-reaction-time,1,P,1,1,8,1243,0,3,333.89999985694885,443,H
2022-12-06T10:29:40Z,td18pjfx,serial-reaction-time,1,R,1,1,9,1243,0,2,349.90000009536743,432,L
2022-12-06T10:29:40Z,td18pjfx,serial-reaction-time,1,P,1,1,10,1243,0,1,358.90000009536743,321,H
2022-12-06T10:29:41Z,td18pjfx,serial-reaction-time,1,R,1,1,11,1243,0,1,333.7999999523163,211,L
2022-12-06T10:29:41Z,td18pjfx,serial-reaction-time,NA,P,1,1,12,1243,0,2,349.2999999523163,112,H
2022-12-06T10:29:42Z,td18pjfx,serial-reaction-time,1,P,1,0,12,1243,0,2,581.5999999046326,112,H
2022-12-06T10:29:42Z,td18pjfx,serial-reaction-time,1,R,1,1,13,1243,0,4,365.89999985694885,124,L
2022-12-06T10:29:42Z,td18pjfx,serial-reaction-time,1,P,1,1,14,1243,0,4,287.39999985694885,244,H
2022-12-06T10:29:43Z,td18pjfx,serial-reaction-time,1,R,1,1,15,1243,0,2,332.7000000476837,442,L
2022-12-06T10:29:43Z,td18pjfx,serial-reaction-time,1,P,1,1,16,1243,0,3,397.7999999523163,423,H
2022-12-06T10:29:44Z,td18pjfx,serial-reaction-time,NA,R,1,1,17,1243,0,2,252.70000004768372,232,T
2022-12-06T10:29:44Z,td18pjfx,serial-reaction-time,1,R,1,0,17,1243,0,2,437.40000009536743,232,T
2022-12-06T10:29:45Z,td18pjfx,serial-reaction-time,1,P,1,1,18,1243,0,1,429.90000009536743,321,H
2022-12-06T10:29:45Z,td18pjfx,serial-reaction-time,1,R,1,1,19,1243,0,3,382,213,L
2022-12-06T10:29:46Z,td18pjfx,serial-reaction-time,1,P,1,1,20,1243,0,2,333.2000000476837,132,H
2022-12-06T10:29:46Z,td18pjfx,serial-reaction-time,1,R,1,1,21,1243,0,4,381.90000009536743,324,L
2022-12-06T10:29:47Z,td18pjfx,serial-reaction-time,1,P,1,1,22,1243,0,4,333.2999999523163,244,H
2022-12-06T10:29:47Z,td18pjfx,serial-reaction-time,1,R,1,1,23,1243,0,2,284.2000000476837,442,L
2022-12-06T10:29:47Z,td18pjfx,serial-reaction-time,NA,P,1,1,24,1243,0,3,253.90000009536743,423,H
2022-12-06T10:29:48Z,td18pjfx,serial-reaction-time,1,P,1,0,24,1243,0,3,486.40000009536743,423,H
2022-12-06T10:29:48Z,td18pjfx,serial-reaction-time,NA,R,1,1,25,1243,0,2,268.09999990463257,232,T
2022-12-06T10:29:48Z,td18pjfx,serial-reaction-time,1,R,1,0,25,1243,0,2,404,232,T
2022-12-06T10:29:49Z,td18pjfx,serial-reaction-time,1,P,1,1,26,1243,0,1,335.5,321,H
2022-12-06T10:29:49Z,td18pjfx,serial-reaction-time,1,R,1,1,27,1243,0,4,348.7000000476837,214,H
2022-12-06T10:29:50Z,td18pjfx,serial-reaction-time,1,P,1,1,28,1243,0,2,414,142,H
2022-12-06T10:29:50Z,td18pjfx,serial-reaction-time,1,R,1,1,29,1243,0,1,413.10000014305115,421,L
2022-12-06T10:29:51Z,td18pjfx,serial-reaction-time,1,P,1,1,30,1243,0,4,366,214,H
2022-12-06T10:29:51Z,td18pjfx,serial-reaction-time,1,R,1,1,31,1243,0,4,268.39999985694885,144,L
2022-12-06T10:29:52Z,td18pjfx,serial-reaction-time,1,P,1,1,32,1243,0,3,366,443,H
2022-12-06T10:29:52Z,td18pjfx,serial-reaction-time,1,R,1,1,33,1243,0,2,381.7999999523163,432,L
2022-12-06T10:29:53Z,td18pjfx,serial-reaction-time,1,P,1,1,34,1243,0,1,509.7999999523163,321,H
2022-12-06T10:29:53Z,td18pjfx,serial-reaction-time,1,R,1,1,35,1243,0,1,333.5,211,L
2022-12-06T10:29:54Z,td18pjfx,serial-reaction-time,1,P,1,1,36,1243,0,2,301.7999999523163,112,H
2022-12-06T10:29:54Z,td18pjfx,serial-reaction-time,NA,R,1,1,37,1243,0,4,254,124,L
2022-12-06T10:29:54Z,td18pjfx,serial-reaction-time,1,R,1,0,37,1243,0,4,470.40000009536743,124,L
2022-12-06T10:29:55Z,td18pjfx,serial-reaction-time,1,P,1,1,38,1243,0,4,284.7000000476837,244,H
2022-12-06T10:29:55Z,td18pjfx,serial-reaction-time,1,R,1,1,39,1243,0,4,332.5,444,R
2022-12-06T10:29:56Z,td18pjfx,serial-reaction-time,1,P,1,1,40,1243,0,3,349.60000014305115,443,H
2022-12-06T10:29:56Z,td18pjfx,serial-reaction-time,1,R,1,1,41,1243,0,2,333.90000009536743,432,L
2022-12-06T10:29:56Z,td18pjfx,serial-reaction-time,1,P,1,1,42,1243,0,1,349.90000009536743,321,H
2022-12-06T10:29:57Z,td18pjfx,serial-reaction-time,1,R,1,1,43,1243,0,2,335.69999980926514,212,T
2022-12-06T10:29:57Z,td18pjfx,serial-reaction-time,1,P,1,1,44,1243,0,2,269.90000009536743,122,H
2022-12-06T10:29:58Z,td18pjfx,serial-reaction-time,1,R,1,1,45,1243,0,2,301.90000009536743,222,R
2022-12-06T10:29:58Z,td18pjfx,serial-reaction-time,1,P,1,1,46,1243,0,4,365.89999985694885,224,H
2022-12-06T10:29:59Z,td18pjfx,serial-reaction-time,NA,R,1,1,47,1243,0,1,397.69999980926514,241,L
2022-12-06T10:29:59Z,td18pjfx,serial-reaction-time,1,R,1,0,47,1243,0,1,582.099999666214,241,L
2022-12-06T10:29:59Z,td18pjfx,serial-reaction-time,1,P,1,1,48,1243,0,3,365.7999999523163,413,H
2022-12-06T10:30:00Z,td18pjfx,serial-reaction-time,NA,R,1,1,49,1243,0,2,285.2999999523163,132,H
2022-12-06T10:30:00Z,td18pjfx,serial-reaction-time,1,R,1,0,49,1243,0,2,437.89999985694885,132,H
2022-12-06T10:30:01Z,td18pjfx,serial-reaction-time,1,P,1,1,50,1243,0,1,397.89999985694885,321,H
2022-12-06T10:30:01Z,td18pjfx,serial-reaction-time,1,R,1,1,51,1243,0,3,383.69999980926514,213,L
2022-12-06T10:30:02Z,td18pjfx,serial-reaction-time,1,P,1,1,52,1243,0,2,365.59999990463257,132,H
2022-12-06T10:30:02Z,td18pjfx,serial-reaction-time,1,R,1,1,53,1243,0,3,431.7999999523163,323,T
2022-12-06T10:30:03Z,td18pjfx,serial-reaction-time,1,P,1,1,54,1243,0,4,380.90000009536743,234,H
2022-12-06T10:30:03Z,td18pjfx,serial-reaction-time,1,R,1,1,55,1243,0,3,365.5,343,T
2022-12-06T10:30:04Z,td18pjfx,serial-reaction-time,1,P,1,1,56,1243,0,3,303.7999999523163,433,H
2022-12-06T10:30:04Z,td18pjfx,serial-reaction-time,1,R,1,1,57,1243,0,1,462.5,331,H
2022-12-06T10:30:05Z,td18pjfx,serial-reaction-time,1,P,1,1,58,1243,0,1,332.7999999523163,311,H
2022-12-06T10:30:05Z,td18pjfx,serial-reaction-time,1,R,1,1,59,1243,0,4,349.40000009536743,114,L
2022-12-06T10:30:06Z,td18pjfx,serial-reaction-time,1,P,1,1,60,1243,0,2,300.7999999523163,142,H
2022-12-06T10:30:06Z,td18pjfx,serial-reaction-time,1,R,1,1,61,1243,0,3,366.59999990463257,423,H
2022-12-06T10:30:07Z,td18pjfx,serial-reaction-time,1,P,1,1,62,1243,0,4,348.7999999523163,234,H
2022-12-06T10:30:07Z,td18pjfx,serial-reaction-time,1,R,1,1,63,1243,0,1,333.39999985694885,341,H
2022-12-06T10:30:08Z,td18pjfx,serial-reaction-time,1,P,1,1,64,1243,0,3,367.40000009536743,413,H
2022-12-06T10:30:08Z,td18pjfx,serial-reaction-time,1,R,1,1,65,1243,0,3,364.40000009536743,133,L
2022-12-06T10:30:09Z,td18pjfx,serial-reaction-time,1,P,1,1,66,1243,0,1,397.89999985694885,331,H
2022-12-06T10:30:09Z,td18pjfx,serial-reaction-time,1,R,1,1,67,1243,0,2,383.7000000476837,312,L
2022-12-06T10:30:10Z,td18pjfx,serial-reaction-time,1,P,1,1,68,1243,0,2,332.80000019073486,122,H
2022-12-06T10:30:10Z,td18pjfx,serial-reaction-time,1,R,1,1,69,1243,0,1,412.90000009536743,221,L
2022-12-06T10:30:11Z,td18pjfx,serial-reaction-time,NA,P,1,1,70,1243,0,4,399.59999990463257,214,H
2022-12-06T10:30:11Z,td18pjfx,serial-reaction-time,1,P,1,0,70,1243,0,4,631.1999998092651,214,H
2022-12-06T10:30:11Z,td18pjfx,serial-reaction-time,1,R,1,1,71,1243,0,2,376.19999980926514,142,H
2022-12-06T10:30:12Z,td18pjfx,serial-reaction-time,1,P,1,1,72,1243,0,3,445.5,423,H
2022-12-06T10:30:12Z,td18pjfx,serial-reaction-time,1,R,1,1,73,1243,0,3,314.39999985694885,233,L
2022-12-06T10:30:13Z,td18pjfx,serial-reaction-time,1,P,1,1,74,1243,0,1,355.5,331,H
2022-12-06T10:30:13Z,td18pjfx,serial-reaction-time,1,R,1,1,75,1243,0,3,349,313,T
2022-12-06T10:30:14Z,td18pjfx,serial-reaction-time,1,P,1,1,76,1243,0,2,365.5,132,H
2022-12-06T10:30:14Z,td18pjfx,serial-reaction-time,1,R,1,1,77,1243,0,3,317.7000000476837,323,T
2022-12-06T10:30:15Z,td18pjfx,serial-reaction-time,1,P,1,1,78,1243,0,4,407.40000009536743,234,H
2022-12-06T10:30:15Z,td18pjfx,serial-reaction-time,NA,R,1,1,79,1243,0,2,365.10000014305115,342,L
2022-12-06T10:30:15Z,td18pjfx,serial-reaction-time,1,R,1,0,79,1243,0,2,389.10000014305115,342,L
2022-12-06T10:30:16Z,td18pjfx,serial-reaction-time,1,P,1,1,80,1243,0,3,351.5,423,H
2022-12-06T10:30:21Z,td18pjfx,html-keyboard-response,NA,NA,NA,NA,NA,NA,NA,NA,NA,NA,NA
2022-12-06T10:33:41Z,td18pjfx,html-keyboard-response,NA,NA,NA,NA,NA,NA,NA,NA,NA,NA,NA
2022-12-06T10:33:42Z,td18pjfx,serial-reaction-time,1,R,2,1,1,1243,0,2,314.89999985694885,2,X
2022-12-06T10:33:43Z,td18pjfx,serial-reaction-time,1,P,2,1,2,1243,0,1,341.2000000476837,21,X
2022-12-06T10:33:43Z,td18pjfx,serial-reaction-time,1,R,2,1,3,1243,0,4,373,214,H
2022-12-06T10:33:44Z,td18pjfx,serial-reaction-time,1,P,2,1,4,1243,0,2,340.2999999523163,142,H
2022-12-06T10:33:44Z,td18pjfx,serial-reaction-time,1,R,2,1,5,1243,0,2,285.7000000476837,422,L
2022-12-06T10:33:44Z,td18pjfx,serial-reaction-time,1,P,2,1,6,1243,0,4,411.7999999523163,224,H
2022-12-06T10:33:45Z,td18pjfx,serial-reaction-time,1,R,2,1,7,1243,0,1,395.80000019073486,241,L
2022-12-06T10:33:45Z,td18pjfx,serial-reaction-time,1,P,2,1,8,1243,0,3,331.80000019073486,413,H
2022-12-06T10:33:46Z,td18pjfx,serial-reaction-time,1,R,2,1,9,1243,0,2,331.7000000476837,132,H
2022-12-06T10:33:46Z,td18pjfx,serial-reaction-time,1,P,2,1,10,1243,0,1,379.90000009536743,321,H
2022-12-06T10:33:47Z,td18pjfx,serial-reaction-time,1,R,2,1,11,1243,0,2,331.90000009536743,212,T
2022-12-06T10:33:47Z,td18pjfx,serial-reaction-time,1,P,2,1,12,1243,0,2,267.5,122,H
2022-12-06T10:33:48Z,td18pjfx,serial-reaction-time,1,R,2,1,13,1243,0,1,383.7000000476837,221,L
2022-12-06T10:33:48Z,td18pjfx,serial-reaction-time,1,P,2,1,14,1243,0,4,396,214,H
2022-12-06T10:33:49Z,td18pjfx,serial-reaction-time,1,R,2,1,15,1243,0,1,379.40000009536743,141,T
2022-12-06T10:33:49Z,td18pjfx,serial-reaction-time,1,P,2,1,16,1243,0,3,370.59999990463257,413,H
2022-12-06T10:33:50Z,td18pjfx,serial-reaction-time,1,R,2,1,17,1243,0,2,348.10000014305115,132,H
2022-12-06T10:33:50Z,td18pjfx,serial-reaction-time,NA,P,2,1,18,1243,0,1,283.89999985694885,321,H
2022-12-06T10:33:51Z,td18pjfx,serial-reaction-time,1,P,2,0,18,1243,0,1,531.2000000476837,321,H
2022-12-06T10:33:51Z,td18pjfx,serial-reaction-time,1,R,2,1,19,1243,0,2,427.60000014305115,212,T
2022-12-06T10:33:51Z,td18pjfx,serial-reaction-time,1,P,2,1,20,1243,0,2,267.90000009536743,122,H
2022-12-06T10:33:52Z,td18pjfx,serial-reaction-time,1,R,2,1,21,1243,0,3,511.7000000476837,223,L
2022-12-06T10:33:53Z,td18pjfx,serial-reaction-time,1,P,2,1,22,1243,0,4,379.90000009536743,234,H
2022-12-06T10:33:53Z,td18pjfx,serial-reaction-time,1,R,2,1,23,1243,0,3,371.59999990463257,343,T
2022-12-06T10:33:54Z,td18pjfx,serial-reaction-time,1,P,2,1,24,1243,0,3,299.90000009536743,433,H
2022-12-06T10:33:54Z,td18pjfx,serial-reaction-time,1,R,2,1,25,1243,0,2,338.59999990463257,332,L
2022-12-06T10:33:55Z,td18pjfx,serial-reaction-time,1,P,2,1,26,1243,0,1,454.2000000476837,321,H
2022-12-06T10:33:55Z,td18pjfx,serial-reaction-time,1,R,2,1,27,1243,0,1,331.90000009536743,211,L
2022-12-06T10:33:56Z,td18pjfx,serial-reaction-time,1,P,2,1,28,1243,0,2,347.09999990463257,112,H
2022-12-06T10:33:56Z,td18pjfx,serial-reaction-time,1,R,2,1,29,1243,0,1,717,121,T
2022-12-06T10:33:57Z,td18pjfx,serial-reaction-time,1,P,2,1,30,1243,0,4,555.7000000476837,214,H
2022-12-06T10:33:58Z,td18pjfx,serial-reaction-time,1,R,2,1,31,1243,0,1,506.7000000476837,141,T
2022-12-06T10:33:58Z,td18pjfx,serial-reaction-time,1,P,2,1,32,1243,0,3,363.89999985694885,413,H
2022-12-06T10:33:59Z,td18pjfx,serial-reaction-time,1,R,2,1,33,1243,0,3,347.90000009536743,133,L
2022-12-06T10:33:59Z,td18pjfx,serial-reaction-time,NA,P,2,1,34,1243,0,1,341.80000019073486,331,H
2022-12-06T10:34:00Z,td18pjfx,serial-reaction-time,1,P,2,0,34,1243,0,1,590.2000002861023,331,H
2022-12-06T10:34:00Z,td18pjfx,serial-reaction-time,1,R,2,1,35,1243,0,1,306.89999985694885,311,H
2022-12-06T10:34:01Z,td18pjfx,serial-reaction-time,1,P,2,1,36,1243,0,2,412,112,H
2022-12-06T10:34:01Z,td18pjfx,serial-reaction-time,1,R,2,1,37,1243,0,2,283.89999985694885,122,H
2022-12-06T10:34:01Z,td18pjfx,serial-reaction-time,1,P,2,1,38,1243,0,4,362.7000000476837,224,H
2022-12-06T10:34:02Z,td18pjfx,serial-reaction-time,1,R,2,1,39,1243,0,2,363.89999985694885,242,T
2022-12-06T10:34:02Z,td18pjfx,serial-reaction-time,1,P,2,1,40,1243,0,3,442.59999990463257,423,H
2022-12-06T10:34:03Z,td18pjfx,serial-reaction-time,1,R,2,1,41,1243,0,2,346.7999999523163,232,T
2022-12-06T10:34:03Z,td18pjfx,serial-reaction-time,1,P,2,1,42,1243,0,1,379.90000009536743,321,H
2022-12-06T10:34:04Z,td18pjfx,serial-reaction-time,1,R,2,1,43,1243,0,4,383.7999999523163,214,H
2022-12-06T10:34:04Z,td18pjfx,serial-reaction-time,1,P,2,1,44,1243,0,2,363.89999985694885,142,H
2022-12-06T10:34:05Z,td18pjfx,serial-reaction-time,1,R,2,1,45,1243,0,3,396.59999990463257,423,H
2022-12-06T10:34:06Z,td18pjfx,serial-reaction-time,1,P,2,1,46,1243,0,4,383.7000000476837,234,H
2022-12-06T10:34:06Z,td18pjfx,serial-reaction-time,1,R,2,1,47,1243,0,2,572,342,L
2022-12-06T10:34:07Z,td18pjfx,serial-reaction-time,1,P,2,1,48,1243,0,3,395.89999985694885,423,H
2022-12-06T10:34:07Z,td18pjfx,serial-reaction-time,1,R,2,1,49,1243,0,4,331.59999990463257,234,H
2022-12-06T10:34:08Z,td18pjfx,serial-reaction-time,1,P,2,1,50,1243,0,1,491.10000014305115,341,H
2022-12-06T10:34:08Z,td18pjfx,serial-reaction-time,1,R,2,1,51,1243,0,4,427.7999999523163,414,T
2022-12-06T10:34:09Z,td18pjfx,serial-reaction-time,1,P,2,1,52,1243,0,2,331.7999999523163,142,H
2022-12-06T10:34:09Z,td18pjfx,serial-reaction-time,1,R,2,1,53,1243,0,1,427.90000009536743,421,L
2022-12-06T10:34:10Z,td18pjfx,serial-reaction-time,1,P,2,1,54,1243,0,4,427.7999999523163,214,H
2022-12-06T10:34:11Z,td18pjfx,serial-reaction-time,1,R,2,1,55,1243,0,4,363.7999999523163,144,L
2022-12-06T10:34:11Z,td18pjfx,serial-reaction-time,1,P,2,1,56,1243,0,3,364.10000014305115,443,H
2022-12-06T10:34:11Z,td18pjfx,serial-reaction-time,1,R,2,1,57,1243,0,3,315.10000014305115,433,H
2022-12-06T10:34:12Z,td18pjfx,serial-reaction-time,1,P,2,1,58,1243,0,1,364,331,H
2022-12-06T10:34:13Z,td18pjfx,serial-reaction-time,1,R,2,1,59,1243,0,3,427.90000009536743,313,T
2022-12-06T10:34:13Z,td18pjfx,serial-reaction-time,1,P,2,1,60,1243,0,2,423.40000009536743,132,H
2022-12-06T10:34:13Z,td18pjfx,serial-reaction-time,NA,R,2,1,61,1243,0,1,282.7000000476837,321,H
2022-12-06T10:34:14Z,td18pjfx,serial-reaction-time,1,R,2,0,61,1243,0,1,610.8000001907349,321,H
2022-12-06T10:34:14Z,td18pjfx,serial-reaction-time,1,P,2,1,62,1243,0,4,395.5,214,H
2022-12-06T10:34:15Z,td18pjfx,serial-reaction-time,1,R,2,1,63,1243,0,2,395.60000014305115,142,H
2022-12-06T10:34:15Z,td18pjfx,serial-reaction-time,1,P,2,1,64,1243,0,3,379.90000009536743,423,H
2022-12-06T10:34:16Z,td18pjfx,serial-reaction-time,1,R,2,1,65,1243,0,4,395.7999999523163,234,H
2022-12-06T10:34:16Z,td18pjfx,serial-reaction-time,1,P,2,1,66,1243,0,1,395.90000009536743,341,H
2022-12-06T10:34:17Z,td18pjfx,serial-reaction-time,1,R,2,1,67,1243,0,2,367.60000014305115,412,L
2022-12-06T10:34:17Z,td18pjfx,serial-reaction-time,1,P,2,1,68,1243,0,2,331.2999999523163,122,H
2022-12-06T10:34:18Z,td18pjfx,serial-reaction-time,1,R,2,1,69,1243,0,2,347.7999999523163,222,R
2022-12-06T10:34:18Z,td18pjfx,serial-reaction-time,1,P,2,1,70,1243,0,4,362.90000009536743,224,H
2022-12-06T10:34:19Z,td18pjfx,serial-reaction-time,1,R,2,1,71,1243,0,4,347.7999999523163,244,H
2022-12-06T10:34:19Z,td18pjfx,serial-reaction-time,1,P,2,1,72,1243,0,3,411.2999999523163,443,H
2022-12-06T10:34:20Z,td18pjfx,serial-reaction-time,1,R,2,1,73,1243,0,1,539.1999998092651,431,L
2022-12-06T10:34:20Z,td18pjfx,serial-reaction-time,1,P,2,1,74,1243,0,1,267.7999999523163,311,H
2022-12-06T10:34:21Z,td18pjfx,serial-reaction-time,1,R,2,1,75,1243,0,1,299.90000009536743,111,R
2022-12-06T10:34:21Z,td18pjfx,serial-reaction-time,NA,P,2,1,76,1243,0,2,255.89999985694885,112,H
2022-12-06T10:34:22Z,td18pjfx,serial-reaction-time,1,P,2,0,76,1243,0,2,519.7999999523163,112,H
2022-12-06T10:34:22Z,td18pjfx,serial-reaction-time,1,R,2,1,77,1243,0,1,347.10000014305115,121,T
2022-12-06T10:34:23Z,td18pjfx,serial-reaction-time,1,P,2,1,78,1243,0,4,459.40000009536743,214,H
2022-12-06T10:34:43Z,td18pjfx,serial-reaction-time,1,R,2,1,79,1243,0,3,20571.5,143,L
2022-12-06T10:34:44Z,td18pjfx,serial-reaction-time,1,P,2,1,80,1243,0,3,331.5,433,H
2022-12-06T10:34:49Z,td18pjfx,html-keyboard-response,NA,NA,NA,NA,NA,NA,NA,NA,NA,NA,NA
2022-12-06T10:34:50Z,td18pjfx,html-keyboard-response,NA,NA,NA,NA,NA,NA,NA,NA,NA,NA,NA
2022-12-06T10:34:51Z,td18pjfx,serial-reaction-time,1,R,3,1,1,1243,0,3,634.5,3,X
2022-12-06T10:34:52Z,td18pjfx,serial-reaction-time,1,P,3,1,2,1243,0,1,362,31,X
2022-12-06T10:34:52Z,td18pjfx,serial-reaction-time,1,R,3,1,3,1243,0,1,267,311,H
2022-12-06T10:34:53Z,td18pjfx,serial-reaction-time,1,P,3,1,4,1243,0,2,346.2000000476837,112,H
2022-12-06T10:34:53Z,td18pjfx,serial-reaction-time,1,R,3,1,5,1243,0,4,363.30000019073486,124,L
2022-12-06T10:34:54Z,td18pjfx,serial-reaction-time,1,P,3,1,6,1243,0,4,297,244,H
2022-12-06T10:34:54Z,td18pjfx,serial-reaction-time,1,R,3,1,7,1243,0,1,379.59999990463257,441,L
2022-12-06T10:34:55Z,td18pjfx,serial-reaction-time,1,P,3,1,8,1243,0,3,443.40000009536743,413,H
2022-12-06T10:34:55Z,td18pjfx,serial-reaction-time,1,R,3,1,9,1243,0,3,250.8000001907349,133,L
2022-12-06T10:34:56Z,td18pjfx,serial-reaction-time,1,P,3,1,10,1243,0,1,363.2000000476837,331,H
2022-12-06T10:34:56Z,td18pjfx,serial-reaction-time,NA,R,3,1,11,1243,0,3,298,313,T
2022-12-06T10:34:56Z,td18pjfx,serial-reaction-time,1,R,3,0,11,1243,0,3,545.8999998569489,313,T
2022-12-06T10:34:57Z,td18pjfx,serial-reaction-time,NA,P,3,1,12,1243,0,2,205,132,H
2022-12-06T10:34:57Z,td18pjfx,serial-reaction-time,1,P,3,0,12,1243,0,2,388.7000000476837,132,H
2022-12-06T10:34:57Z,td18pjfx,serial-reaction-time,NA,R,3,1,13,1243,0,3,367.60000014305115,323,T
2022-12-06T10:34:58Z,td18pjfx,serial-reaction-time,1,R,3,0,13,1243,0,3,551.8000001907349,323,T
2022-12-06T10:34:58Z,td18pjfx,serial-reaction-time,1,P,3,1,14,1243,0,4,362.80000019073486,234,H
2022-12-06T10:34:59Z,td18pjfx,serial-reaction-time,1,R,3,1,15,1243,0,2,347.59999990463257,342,L
2022-12-06T10:34:59Z,td18pjfx,serial-reaction-time,1,P,3,1,16,1243,0,3,330.2000000476837,423,H
2022-12-06T10:34:59Z,td18pjfx,serial-reaction-time,1,R,3,1,17,1243,0,1,316.89999985694885,231,L
2022-12-06T10:35:00Z,td18pjfx,serial-reaction-time,1,P,3,1,18,1243,0,1,330.60000014305115,311,H
2022-12-06T10:35:00Z,td18pjfx,serial-reaction-time,1,R,3,1,19,1243,0,1,346.90000009536743,111,R
2022-12-06T10:35:01Z,td18pjfx,serial-reaction-time,1,P,3,1,20,1243,0,2,282.5,112,H
2022-12-06T10:35:01Z,td18pjfx,serial-reaction-time,1,R,3,1,21,1243,0,2,267,122,H
2022-12-06T10:35:02Z,td18pjfx,serial-reaction-time,1,P,3,1,22,1243,0,4,362.2000000476837,224,H
2022-12-06T10:35:02Z,td18pjfx,serial-reaction-time,NA,R,3,1,23,1243,0,2,234.3000001907349,242,T
2022-12-06T10:35:02Z,td18pjfx,serial-reaction-time,1,R,3,0,23,1243,0,2,434.30000019073486,242,T
2022-12-06T10:35:03Z,td18pjfx,serial-reaction-time,1,P,3,1,24,1243,0,3,363.09999990463257,423,H
2022-12-06T10:35:03Z,td18pjfx,serial-reaction-time,1,R,3,1,25,1243,0,4,394.90000009536743,234,H
2022-12-06T10:35:04Z,td18pjfx,serial-reaction-time,1,P,3,1,26,1243,0,1,327.40000009536743,341,H
2022-12-06T10:35:04Z,td18pjfx,serial-reaction-time,1,R,3,1,27,1243,0,4,426.10000014305115,414,T
2022-12-06T10:35:05Z,td18pjfx,serial-reaction-time,1,P,3,1,28,1243,0,2,441.7999999523163,142,H
2022-12-06T10:35:05Z,td18pjfx,serial-reaction-time,1,R,3,1,29,1243,0,2,298.2999999523163,422,L
2022-12-06T10:35:06Z,td18pjfx,serial-reaction-time,1,P,3,1,30,1243,0,4,297.10000014305115,224,H
2022-12-06T10:35:06Z,td18pjfx,serial-reaction-time,NA,R,3,1,31,1243,0,3,331.40000009536743,243,L
2022-12-06T10:35:06Z,td18pjfx,serial-reaction-time,1,R,3,0,31,1243,0,3,547.4000000953674,243,L
2022-12-06T10:35:07Z,td18pjfx,serial-reaction-time,1,P,3,1,32,1243,0,3,299.40000009536743,433,H
2022-12-06T10:35:08Z,td18pjfx,serial-reaction-time,1,R,3,1,33,1243,0,1,554.2000000476837,331,H
2022-12-06T10:35:08Z,td18pjfx,serial-reaction-time,1,P,3,1,34,1243,0,1,283.09999990463257,311,H
2022-12-06T10:35:08Z,td18pjfx,serial-reaction-time,1,R,3,1,35,1243,0,3,351.59999990463257,113,L
2022-12-06T10:35:09Z,td18pjfx,serial-reaction-time,1,P,3,1,36,1243,0,2,475.2999999523163,132,H
2022-12-06T10:35:10Z,td18pjfx,serial-reaction-time,1,R,3,1,37,1243,0,1,401,321,H
2022-12-06T10:35:10Z,td18pjfx,serial-reaction-time,1,P,3,1,38,1243,0,4,370.39999985694885,214,H
2022-12-06T10:35:11Z,td18pjfx,serial-reaction-time,1,R,3,1,39,1243,0,3,427.2999999523163,143,L
2022-12-06T10:35:11Z,td18pjfx,serial-reaction-time,1,P,3,1,40,1243,0,3,299.30000019073486,433,H
2022-12-06T10:35:12Z,td18pjfx,serial-reaction-time,1,R,3,1,41,1243,0,4,393.7000000476837,334,L
2022-12-06T10:35:13Z,td18pjfx,serial-reaction-time,1,P,3,1,42,1243,0,1,752,341,H
2022-12-06T10:35:13Z,td18pjfx,serial-reaction-time,1,R,3,1,43,1243,0,4,379,414,T
2022-12-06T10:35:14Z,td18pjfx,serial-reaction-time,1,P,3,1,44,1243,0,2,537.7000000476837,142,H
2022-12-06T10:35:14Z,td18pjfx,serial-reaction-time,1,R,3,1,45,1243,0,4,426.40000009536743,424,T
2022-12-06T10:35:15Z,td18pjfx,serial-reaction-time,1,P,3,1,46,1243,0,4,298.60000014305115,244,H
2022-12-06T10:35:15Z,td18pjfx,serial-reaction-time,1,R,3,1,47,1243,0,1,379,441,L
2022-12-06T10:35:16Z,td18pjfx,serial-reaction-time,1,P,3,1,48,1243,0,3,410.7999999523163,413,H
2022-12-06T10:35:16Z,td18pjfx,serial-reaction-time,1,R,3,1,49,1243,0,2,378.7999999523163,132,H
2022-12-06T10:35:17Z,td18pjfx,serial-reaction-time,1,P,3,1,50,1243,0,1,426.2999999523163,321,H
2022-12-06T10:35:17Z,td18pjfx,serial-reaction-time,1,R,3,1,51,1243,0,4,426.7000000476837,214,H
2022-12-06T10:35:18Z,td18pjfx,serial-reaction-time,1,P,3,1,52,1243,0,2,426.7000000476837,142,H
2022-12-06T10:35:18Z,td18pjfx,serial-reaction-time,1,R,3,1,53,1243,0,3,394.90000009536743,423,H
2022-12-06T10:35:19Z,td18pjfx,serial-reaction-time,1,P,3,1,54,1243,0,4,346.60000014305115,234,H
2022-12-06T10:35:19Z,td18pjfx,serial-reaction-time,1,R,3,1,55,1243,0,1,361.7999999523163,341,H
2022-12-06T10:35:20Z,td18pjfx,serial-reaction-time,1,P,3,1,56,1243,0,3,399.7999999523163,413,H
2022-12-06T10:35:21Z,td18pjfx,serial-reaction-time,1,R,3,1,57,1243,0,3,381.7999999523163,133,L
2022-12-06T10:35:21Z,td18pjfx,serial-reaction-time,1,P,3,1,58,1243,0,1,395.5,331,H
2022-12-06T10:35:22Z,td18pjfx,serial-reaction-time,1,R,3,1,59,1243,0,4,426.90000009536743,314,L
2022-12-06T10:35:22Z,td18pjfx,serial-reaction-time,1,P,3,1,60,1243,0,2,331.2999999523163,142,H
2022-12-06T10:35:23Z,td18pjfx,serial-reaction-time,1,R,3,1,61,1243,0,1,347.7000000476837,421,L
2022-12-06T10:35:23Z,td18pjfx,serial-reaction-time,1,P,3,1,62,1243,0,4,362,214,H
2022-12-06T10:35:24Z,td18pjfx,serial-reaction-time,1,R,3,1,63,1243,0,3,402.2999999523163,143,L
2022-12-06T10:35:24Z,td18pjfx,serial-reaction-time,1,P,3,1,64,1243,0,3,363.09999990463257,433,H
2022-12-06T10:35:25Z,td18pjfx,serial-reaction-time,1,R,3,1,65,1243,0,3,299.5,333,R
2022-12-06T10:35:25Z,td18pjfx,serial-reaction-time,1,P,3,1,66,1243,0,1,357.10000014305115,331,H
2022-12-06T10:35:25Z,td18pjfx,serial-reaction-time,1,R,3,1,67,1243,0,1,266.2999999523163,311,H
2022-12-06T10:35:26Z,td18pjfx,serial-reaction-time,1,P,3,1,68,1243,0,2,302.60000014305115,112,H
2022-12-06T10:35:26Z,td18pjfx,serial-reaction-time,NA,R,3,1,69,1243,0,1,299.2999999523163,121,T
2022-12-06T10:35:27Z,td18pjfx,serial-reaction-time,1,R,3,0,69,1243,0,1,547.5,121,T
2022-12-06T10:35:27Z,td18pjfx,serial-reaction-time,1,P,3,1,70,1243,0,4,420,214,H
2022-12-06T10:35:28Z,td18pjfx,serial-reaction-time,1,R,3,1,71,1243,0,3,411.2999999523163,143,L
2022-12-06T10:35:28Z,td18pjfx,serial-reaction-time,1,P,3,1,72,1243,0,3,346.5,433,H
2022-12-06T10:35:29Z,td18pjfx,serial-reaction-time,1,R,3,1,73,1243,0,4,315.19999980926514,334,L
2022-12-06T10:35:29Z,td18pjfx,serial-reaction-time,1,P,3,1,74,1243,0,1,426.2000000476837,341,H
2022-12-06T10:35:30Z,td18pjfx,serial-reaction-time,1,R,3,1,75,1243,0,1,698.9000000953674,411,L
2022-12-06T10:35:31Z,td18pjfx,serial-reaction-time,1,P,3,1,76,1243,0,2,715.2000000476837,112,H
2022-12-06T10:35:31Z,td18pjfx,serial-reaction-time,NA,R,3,1,77,1243,0,1,268.2000000476837,121,T
2022-12-06T10:35:31Z,td18pjfx,serial-reaction-time,1,R,3,0,77,1243,0,1,515.3999998569489,121,T
2022-12-06T10:35:32Z,td18pjfx,serial-reaction-time,1,P,3,1,78,1243,0,4,490.89999985694885,214,H
2022-12-06T10:35:33Z,td18pjfx,serial-reaction-time,1,R,3,1,79,1243,0,2,362.7999999523163,142,H
2022-12-06T10:35:33Z,td18pjfx,serial-reaction-time,1,P,3,1,80,1243,0,3,382.19999980926514,423,H
2022-12-06T10:35:38Z,td18pjfx,html-keyboard-response,NA,NA,NA,NA,NA,NA,NA,NA,NA,NA,NA
2022-12-06T10:35:39Z,td18pjfx,html-keyboard-response,NA,NA,NA,NA,NA,NA,NA,NA,NA,NA,NA
2022-12-06T10:35:40Z,td18pjfx,serial-reaction-time,1,R,4,1,1,1243,0,2,377.59999990463257,2,X
2022-12-06T10:35:41Z,td18pjfx,serial-reaction-time,1,P,4,1,2,1243,0,1,378.2999999523163,21,X
2022-12-06T10:35:41Z,td18pjfx,serial-reaction-time,1,R,4,1,3,1243,0,3,442.7000000476837,213,L
2022-12-06T10:35:42Z,td18pjfx,serial-reaction-time,1,P,4,1,4,1243,0,2,362,132,H
2022-12-06T10:35:42Z,td18pjfx,serial-reaction-time,NA,R,4,1,5,1243,0,3,378.2999999523163,323,T
2022-12-06T10:35:43Z,td18pjfx,serial-reaction-time,1,R,4,0,5,1243,0,3,612.3999998569489,323,T
2022-12-06T10:35:43Z,td18pjfx,serial-reaction-time,1,P,4,1,6,1243,0,4,377.7999999523163,234,H
2022-12-06T10:35:44Z,td18pjfx,serial-reaction-time,1,R,4,1,7,1243,0,1,338.69999980926514,341,H
2022-12-06T10:35:44Z,td18pjfx,serial-reaction-time,1,P,4,1,8,1243,0,3,346.09999990463257,413,H
2022-12-06T10:35:45Z,td18pjfx,serial-reaction-time,1,R,4,1,9,1243,0,4,361.5,134,L
2022-12-06T10:35:45Z,td18pjfx,serial-reaction-time,1,P,4,1,10,1243,0,1,377,341,H
2022-12-06T10:35:46Z,td18pjfx,serial-reaction-time,1,R,4,1,11,1243,0,4,425.90000009536743,414,T
2022-12-06T10:35:46Z,td18pjfx,serial-reaction-time,1,P,4,1,12,1243,0,2,348.89999985694885,142,H
2022-12-06T10:35:47Z,td18pjfx,serial-reaction-time,1,R,4,1,13,1243,0,4,346.5,424,T
2022-12-06T10:35:47Z,td18pjfx,serial-reaction-time,1,P,4,1,14,1243,0,4,362.09999990463257,244,H
2022-12-06T10:35:48Z,td18pjfx,serial-reaction-time,1,R,4,1,15,1243,0,3,362.7000000476837,443,H
2022-12-06T10:35:48Z,td18pjfx,serial-reaction-time,1,P,4,1,16,1243,0,3,315,433,H
2022-12-06T10:35:49Z,td18pjfx,serial-reaction-time,1,R,4,1,17,1243,0,2,394.90000009536743,332,L
2022-12-06T10:35:49Z,td18pjfx,serial-reaction-time,1,P,4,1,18,1243,0,1,362.7999999523163,321,H
2022-12-06T10:35:50Z,td18pjfx,serial-reaction-time,1,R,4,1,19,1243,0,4,425.90000009536743,214,H
2022-12-06T10:35:50Z,td18pjfx,serial-reaction-time,1,P,4,1,20,1243,0,2,395,142,H
2022-12-06T10:35:51Z,td18pjfx,serial-reaction-time,1,R,4,1,21,1243,0,2,324.40000009536743,422,L
2022-12-06T10:35:51Z,td18pjfx,serial-reaction-time,1,P,4,1,22,1243,0,4,346.80000019073486,224,H
2022-12-06T10:35:52Z,td18pjfx,serial-reaction-time,1,R,4,1,23,1243,0,1,476.2999999523163,241,L
2022-12-06T10:35:52Z,td18pjfx,serial-reaction-time,1,P,4,1,24,1243,0,3,394.09999990463257,413,H
2022-12-06T10:35:53Z,td18pjfx,serial-reaction-time,1,R,4,1,25,1243,0,4,359.2999999523163,134,L
2022-12-06T10:35:53Z,td18pjfx,serial-reaction-time,1,P,4,1,26,1243,0,1,411.2000000476837,341,H
2022-12-06T10:35:54Z,td18pjfx,serial-reaction-time,1,R,4,1,27,1243,0,1,378.80000019073486,411,L
2022-12-06T10:35:54Z,td18pjfx,serial-reaction-time,1,P,4,1,28,1243,0,2,379,112,H
2022-12-06T10:35:55Z,td18pjfx,serial-reaction-time,1,R,4,1,29,1243,0,3,378.69999980926514,123,L
2022-12-06T10:35:55Z,td18pjfx,serial-reaction-time,1,P,4,1,30,1243,0,4,346.09999990463257,234,H
2022-12-06T10:35:56Z,td18pjfx,serial-reaction-time,NA,R,4,1,31,1243,0,3,378.90000009536743,343,T
2022-12-06T10:35:56Z,td18pjfx,serial-reaction-time,1,R,4,0,31,1243,0,3,657.8000001907349,343,T
2022-12-06T10:35:57Z,td18pjfx,serial-reaction-time,1,P,4,1,32,1243,0,3,315.10000014305115,433,H
2022-12-06T10:35:57Z,td18pjfx,serial-reaction-time,1,R,4,1,33,1243,0,2,346.80000019073486,332,L
2022-12-06T10:35:58Z,td18pjfx,serial-reaction-time,1,P,4,1,34,1243,0,1,329.7999999523163,321,H
2022-12-06T10:35:58Z,td18pjfx,serial-reaction-time,1,R,4,1,35,1243,0,4,426.80000019073486,214,H
2022-12-06T10:35:59Z,td18pjfx,serial-reaction-time,1,P,4,1,36,1243,0,2,393.7999999523163,142,H
2022-12-06T10:35:59Z,td18pjfx,serial-reaction-time,1,R,4,1,37,1243,0,3,394.2000000476837,423,H
2022-12-06T10:36:00Z,td18pjfx,serial-reaction-time,1,P,4,1,38,1243,0,4,362.2000000476837,234,H
2022-12-06T10:36:00Z,td18pjfx,serial-reaction-time,1,R,4,1,39,1243,0,3,410.5,343,T
2022-12-06T10:36:01Z,td18pjfx,serial-reaction-time,1,P,4,1,40,1243,0,3,378.80000019073486,433,H
2022-12-06T10:36:01Z,td18pjfx,serial-reaction-time,1,R,4,1,41,1243,0,3,330.7000000476837,333,R
2022-12-06T10:36:02Z,td18pjfx,serial-reaction-time,1,P,4,1,42,1243,0,1,363.10000014305115,331,H
2022-12-06T10:36:02Z,td18pjfx,serial-reaction-time,NA,R,4,1,43,1243,0,1,347,311,H
2022-12-06T10:36:03Z,td18pjfx,serial-reaction-time,1,R,4,0,43,1243,0,1,609.9000000953674,311,H
2022-12-06T10:36:03Z,td18pjfx,serial-reaction-time,1,P,4,1,44,1243,0,2,378.59999990463257,112,H
2022-12-06T10:36:03Z,td18pjfx,serial-reaction-time,1,R,4,1,45,1243,0,2,328,122,H
2022-12-06T10:36:04Z,td18pjfx,serial-reaction-time,1,P,4,1,46,1243,0,4,442.90000009536743,224,H
2022-12-06T10:36:05Z,td18pjfx,serial-reaction-time,1,R,4,1,47,1243,0,2,442.7000000476837,242,T
2022-12-06T10:36:05Z,td18pjfx,serial-reaction-time,NA,P,4,1,48,1243,0,3,298.90000009536743,423,H
2022-12-06T10:36:05Z,td18pjfx,serial-reaction-time,1,P,4,0,48,1243,0,3,530.2999999523163,423,H
2022-12-06T10:36:06Z,td18pjfx,serial-reaction-time,1,R,4,1,49,1243,0,3,313.90000009536743,233,L
2022-12-06T10:36:06Z,td18pjfx,serial-reaction-time,1,P,4,1,50,1243,0,1,570.9000000953674,331,H
2022-12-06T10:36:07Z,td18pjfx,serial-reaction-time,1,R,4,1,51,1243,0,2,745.5,312,L
2022-12-06T10:36:08Z,td18pjfx,serial-reaction-time,1,P,4,1,52,1243,0,2,282.40000009536743,122,H
2022-12-06T10:36:08Z,td18pjfx,serial-reaction-time,1,R,4,1,53,1243,0,3,363,223,L
2022-12-06T10:36:09Z,td18pjfx,serial-reaction-time,1,P,4,1,54,1243,0,4,361.7000000476837,234,H
2022-12-06T10:36:09Z,td18pjfx,serial-reaction-time,1,R,4,1,55,1243,0,2,330.7999999523163,342,L
2022-12-06T10:36:10Z,td18pjfx,serial-reaction-time,NA,P,4,1,56,1243,0,3,267.09999990463257,423,H
2022-12-06T10:36:10Z,td18pjfx,serial-reaction-time,1,P,4,0,56,1243,0,3,562.2999999523163,423,H
2022-12-06T10:36:10Z,td18pjfx,serial-reaction-time,1,R,4,1,57,1243,0,1,316.89999985694885,231,L
2022-12-06T10:36:11Z,td18pjfx,serial-reaction-time,1,P,4,1,58,1243,0,1,282.90000009536743,311,H
2022-12-06T10:36:11Z,td18pjfx,serial-reaction-time,1,R,4,1,59,1243,0,4,378.7999999523163,114,L
2022-12-06T10:36:12Z,td18pjfx,serial-reaction-time,1,P,4,1,60,1243,0,2,410.7999999523163,142,H
2022-12-06T10:36:12Z,td18pjfx,serial-reaction-time,1,R,4,1,61,1243,0,2,330.7000000476837,422,L
2022-12-06T10:36:13Z,td18pjfx,serial-reaction-time,1,P,4,1,62,1243,0,4,411.10000014305115,224,H
2022-12-06T10:36:13Z,td18pjfx,serial-reaction-time,1,R,4,1,63,1243,0,1,475.10000014305115,241,L
2022-12-06T10:36:14Z,td18pjfx,serial-reaction-time,1,P,4,1,64,1243,0,3,383.7000000476837,413,H
2022-12-06T10:36:14Z,td18pjfx,serial-reaction-time,1,R,4,1,65,1243,0,3,266.7999999523163,133,L
2022-12-06T10:36:15Z,td18pjfx,serial-reaction-time,NA,P,4,1,66,1243,0,1,331,331,H
2022-12-06T10:36:15Z,td18pjfx,serial-reaction-time,1,P,4,0,66,1243,0,1,417.7000000476837,331,H
2022-12-06T10:36:15Z,td18pjfx,serial-reaction-time,1,R,4,1,67,1243,0,3,394.40000009536743,313,T
2022-12-06T10:36:16Z,td18pjfx,serial-reaction-time,NA,P,4,1,68,1243,0,2,329.7999999523163,132,H
2022-12-06T10:36:16Z,td18pjfx,serial-reaction-time,1,P,4,0,68,1243,0,2,497.2999999523163,132,H
2022-12-06T10:36:17Z,td18pjfx,serial-reaction-time,1,R,4,1,69,1243,0,2,283,322,L
2022-12-06T10:36:17Z,td18pjfx,serial-reaction-time,1,P,4,1,70,1243,0,4,378.5,224,H
2022-12-06T10:36:18Z,td18pjfx,serial-reaction-time,1,R,4,1,71,1243,0,2,399.59999990463257,242,T
2022-12-06T10:36:18Z,td18pjfx,serial-reaction-time,1,P,4,1,72,1243,0,3,563.8999998569489,423,H
2022-12-06T10:36:19Z,td18pjfx,serial-reaction-time,1,R,4,1,73,1243,0,2,346.89999985694885,232,T
2022-12-06T10:36:19Z,td18pjfx,serial-reaction-time,NA,P,4,1,74,1243,0,1,290.7999999523163,321,H
2022-12-06T10:36:19Z,td18pjfx,serial-reaction-time,1,P,4,0,74,1243,0,1,474,321,H
2022-12-06T10:36:20Z,td18pjfx,serial-reaction-time,1,R,4,1,75,1243,0,1,362.90000009536743,211,L
2022-12-06T10:36:20Z,td18pjfx,serial-reaction-time,1,P,4,1,76,1243,0,2,379,112,H
2022-12-06T10:36:21Z,td18pjfx,serial-reaction-time,1,R,4,1,77,1243,0,4,442.59999990463257,124,L
2022-12-06T10:36:21Z,td18pjfx,serial-reaction-time,1,P,4,1,78,1243,0,4,362.89999985694885,244,H
2022-12-06T10:36:22Z,td18pjfx,serial-reaction-time,1,R,4,1,79,1243,0,4,394.90000009536743,444,R
2022-12-06T10:36:23Z,td18pjfx,serial-reaction-time,1,P,4,1,80,1243,0,3,475,443,H
2022-12-06T10:36:28Z,td18pjfx,html-keyboard-response,NA,NA,NA,NA,NA,NA,NA,NA,NA,NA,NA
2022-12-06T10:36:28Z,td18pjfx,html-keyboard-response,NA,NA,NA,NA,NA,NA,NA,NA,NA,NA,NA
2022-12-06T10:36:29Z,td18pjfx,serial-reaction-time,1,R,5,1,1,1243,0,4,522.7999999523163,4,X
2022-12-06T10:36:30Z,td18pjfx,serial-reaction-time,NA,P,5,1,2,1243,0,1,634.7000000476837,41,X
2022-12-06T10:36:30Z,td18pjfx,serial-reaction-time,1,P,5,0,2,1243,0,1,882,41,X
2022-12-06T10:36:31Z,td18pjfx,serial-reaction-time,1,R,5,1,3,1243,0,3,378.90000009536743,413,H
2022-12-06T10:36:31Z,td18pjfx,serial-reaction-time,1,P,5,1,4,1243,0,2,394.90000009536743,132,H
2022-12-06T10:36:32Z,td18pjfx,serial-reaction-time,1,R,5,1,5,1243,0,2,715,322,L
2022-12-06T10:36:33Z,td18pjfx,serial-reaction-time,1,P,5,1,6,1243,0,4,397.7000000476837,224,H
2022-12-06T10:36:33Z,td18pjfx,serial-reaction-time,1,R,5,1,7,1243,0,1,377,241,L
2022-12-06T10:36:34Z,td18pjfx,serial-reaction-time,1,P,5,1,8,1243,0,3,378.90000009536743,413,H
2022-12-06T10:36:34Z,td18pjfx,serial-reaction-time,1,R,5,1,9,1243,0,4,403.89999985694885,134,L
2022-12-06T10:36:35Z,td18pjfx,serial-reaction-time,1,P,5,1,10,1243,0,1,373,341,H
2022-12-06T10:36:35Z,td18pjfx,serial-reaction-time,1,R,5,1,11,1243,0,2,378.5,412,L
2022-12-06T10:36:36Z,td18pjfx,serial-reaction-time,1,P,5,1,12,1243,0,2,314.90000009536743,122,H
2022-12-06T10:36:36Z,td18pjfx,serial-reaction-time,1,R,5,1,13,1243,0,3,397.10000014305115,223,L
2022-12-06T10:36:37Z,td18pjfx,serial-reaction-time,1,P,5,1,14,1243,0,4,394.7000000476837,234,H
2022-12-06T10:36:37Z,td18pjfx,serial-reaction-time,1,R,5,1,15,1243,0,1,410.40000009536743,341,H
2022-12-06T10:36:38Z,td18pjfx,serial-reaction-time,NA,P,5,1,16,1243,0,3,347,413,H
2022-12-06T10:36:38Z,td18pjfx,serial-reaction-time,1,P,5,0,16,1243,0,3,434.2999999523163,413,H
2022-12-06T10:36:38Z,td18pjfx,serial-reaction-time,1,R,5,1,17,1243,0,2,378.90000009536743,132,H
2022-12-06T10:36:39Z,td18pjfx,serial-reaction-time,1,P,5,1,18,1243,0,1,394.5,321,H
2022-12-06T10:36:39Z,td18pjfx,serial-reaction-time,NA,R,5,1,19,1243,0,1,314.89999985694885,211,L
2022-12-06T10:36:40Z,td18pjfx,serial-reaction-time,1,R,5,0,19,1243,0,1,593.6999998092651,211,L
2022-12-06T10:36:40Z,td18pjfx,serial-reaction-time,1,P,5,1,20,1243,0,2,361.5,112,H
2022-12-06T10:36:41Z,td18pjfx,serial-reaction-time,1,R,5,1,21,1243,0,3,411,123,L
2022-12-06T10:36:41Z,td18pjfx,serial-reaction-time,1,P,5,1,22,1243,0,4,394.89999985694885,234,H
2022-12-06T10:36:42Z,td18pjfx,serial-reaction-time,1,R,5,1,23,1243,0,4,331,344,L
2022-12-06T10:36:42Z,td18pjfx,serial-reaction-time,1,P,5,1,24,1243,0,3,381.69999980926514,443,H
2022-12-06T10:36:43Z,td18pjfx,serial-reaction-time,1,R,5,1,25,1243,0,3,555,433,H
2022-12-06T10:36:44Z,td18pjfx,serial-reaction-time,1,P,5,1,26,1243,0,1,572.2999999523163,331,H
2022-12-06T10:36:44Z,td18pjfx,serial-reaction-time,1,R,5,1,27,1243,0,4,457.59999990463257,314,L
2022-12-06T10:36:45Z,td18pjfx,serial-reaction-time,1,P,5,1,28,1243,0,2,409.7999999523163,142,H
2022-12-06T10:36:45Z,td18pjfx,serial-reaction-time,1,R,5,1,29,1243,0,4,409.7999999523163,424,T
2022-12-06T10:36:46Z,td18pjfx,serial-reaction-time,1,P,5,1,30,1243,0,4,297.89999985694885,244,H
2022-12-06T10:36:46Z,td18pjfx,serial-reaction-time,1,R,5,1,31,1243,0,4,361.39999985694885,444,R
2022-12-06T10:36:47Z,td18pjfx,serial-reaction-time,1,P,5,1,32,1243,0,3,379.7999999523163,443,H
2022-12-06T10:36:47Z,td18pjfx,serial-reaction-time,1,R,5,1,33,1243,0,2,425.59999990463257,432,L
2022-12-06T10:36:48Z,td18pjfx,serial-reaction-time,NA,P,5,1,34,1243,0,1,276.09999990463257,321,H
2022-12-06T10:36:48Z,td18pjfx,serial-reaction-time,1,P,5,0,34,1243,0,1,507.2999999523163,321,H
2022-12-06T10:36:48Z,td18pjfx,serial-reaction-time,1,R,5,1,35,1243,0,3,329.89999985694885,213,L
2022-12-06T10:36:49Z,td18pjfx,serial-reaction-time,1,P,5,1,36,1243,0,2,394.7999999523163,132,H
2022-12-06T10:36:50Z,td18pjfx,serial-reaction-time,1,R,5,1,37,1243,0,1,441.89999985694885,321,H
2022-12-06T10:36:50Z,td18pjfx,serial-reaction-time,1,P,5,1,38,1243,0,4,393.7000000476837,214,H
2022-12-06T10:36:51Z,td18pjfx,serial-reaction-time,1,R,5,1,39,1243,0,1,410.19999980926514,141,T
2022-12-06T10:36:51Z,td18pjfx,serial-reaction-time,1,P,5,1,40,1243,0,3,425.7999999523163,413,H
2022-12-06T10:36:52Z,td18pjfx,serial-reaction-time,1,R,5,1,41,1243,0,3,314.5,133,L
2022-12-06T10:36:52Z,td18pjfx,serial-reaction-time,1,P,5,1,42,1243,0,1,394.7000000476837,331,H
2022-12-06T10:36:53Z,td18pjfx,serial-reaction-time,1,R,5,1,43,1243,0,1,346.2999999523163,311,H
2022-12-06T10:36:53Z,td18pjfx,serial-reaction-time,1,P,5,1,44,1243,0,2,428.2000000476837,112,H
2022-12-06T10:36:54Z,td18pjfx,serial-reaction-time,1,R,5,1,45,1243,0,4,553.9000000953674,124,L
2022-12-06T10:36:54Z,td18pjfx,serial-reaction-time,1,P,5,1,46,1243,0,4,329.09999990463257,244,H
2022-12-06T10:36:55Z,td18pjfx,serial-reaction-time,1,R,5,1,47,1243,0,1,904.9000000953674,441,L
2022-12-06T10:36:56Z,td18pjfx,serial-reaction-time,1,P,5,1,48,1243,0,3,377.89999985694885,413,H
2022-12-06T10:36:57Z,td18pjfx,serial-reaction-time,1,R,5,1,49,1243,0,4,424.80000019073486,134,L
2022-12-06T10:36:58Z,td18pjfx,serial-reaction-time,1,P,5,1,50,1243,0,1,921.9000000953674,341,H
2022-12-06T10:36:58Z,td18pjfx,serial-reaction-time,1,R,5,1,51,1243,0,4,425.90000009536743,414,T
2022-12-06T10:36:59Z,td18pjfx,serial-reaction-time,1,P,5,1,52,1243,0,2,447.39999985694885,142,H
2022-12-06T10:36:59Z,td18pjfx,serial-reaction-time,1,R,5,1,53,1243,0,1,419.2999999523163,421,L
2022-12-06T10:37:00Z,td18pjfx,serial-reaction-time,1,P,5,1,54,1243,0,4,586.0999999046326,214,H
2022-12-06T10:37:01Z,td18pjfx,serial-reaction-time,1,R,5,1,55,1243,0,3,489.90000009536743,143,L
2022-12-06T10:37:01Z,td18pjfx,serial-reaction-time,1,P,5,1,56,1243,0,3,522.2999999523163,433,H
2022-12-06T10:37:02Z,td18pjfx,serial-reaction-time,1,R,5,1,57,1243,0,1,585.9000000953674,331,H
2022-12-06T10:37:02Z,td18pjfx,serial-reaction-time,1,P,5,1,58,1243,0,1,329.80000019073486,311,H
2022-12-06T10:37:03Z,td18pjfx,serial-reaction-time,1,R,5,1,59,1243,0,3,649.1999998092651,113,L
2022-12-06T10:37:04Z,td18pjfx,serial-reaction-time,1,P,5,1,60,1243,0,2,409.59999990463257,132,H
2022-12-06T10:37:04Z,td18pjfx,serial-reaction-time,1,R,5,1,61,1243,0,2,361.80000019073486,322,L
2022-12-06T10:37:05Z,td18pjfx,serial-reaction-time,1,P,5,1,62,1243,0,4,394,224,H
2022-12-06T10:37:05Z,td18pjfx,serial-reaction-time,NA,R,5,1,63,1243,0,3,410.40000009536743,243,L
2022-12-06T10:37:05Z,td18pjfx,serial-reaction-time,1,R,5,0,63,1243,0,3,481.7000002861023,243,L
2022-12-06T10:37:06Z,td18pjfx,serial-reaction-time,1,P,5,1,64,1243,0,3,330.30000019073486,433,H
2022-12-06T10:37:06Z,td18pjfx,serial-reaction-time,1,R,5,1,65,1243,0,4,330.2000000476837,334,L
2022-12-06T10:37:07Z,td18pjfx,serial-reaction-time,1,P,5,1,66,1243,0,1,426,341,H
2022-12-06T10:37:07Z,td18pjfx,serial-reaction-time,1,R,5,1,67,1243,0,3,377.80000019073486,413,H
2022-12-06T10:37:08Z,td18pjfx,serial-reaction-time,1,P,5,1,68,1243,0,2,445.09999990463257,132,H
2022-12-06T10:37:09Z,td18pjfx,serial-reaction-time,1,R,5,1,69,1243,0,2,364.09999990463257,322,L
2022-12-06T10:37:09Z,td18pjfx,serial-reaction-time,1,P,5,1,70,1243,0,4,425.80000019073486,224,H
2022-12-06T10:37:10Z,td18pjfx,serial-reaction-time,1,R,5,1,71,1243,0,4,314.7000000476837,244,H
2022-12-06T10:37:10Z,td18pjfx,serial-reaction-time,1,P,5,1,72,1243,0,3,370.2000000476837,443,H
2022-12-06T10:37:11Z,td18pjfx,serial-reaction-time,1,R,5,1,73,1243,0,2,489.90000009536743,432,L
2022-12-06T10:37:11Z,td18pjfx,serial-reaction-time,1,P,5,1,74,1243,0,1,378.30000019073486,321,H
2022-12-06T10:37:12Z,td18pjfx,serial-reaction-time,1,R,5,1,75,1243,0,3,425.09999990463257,213,L
2022-12-06T10:37:12Z,td18pjfx,serial-reaction-time,1,P,5,1,76,1243,0,2,361.90000009536743,132,H
2022-12-06T10:37:13Z,td18pjfx,serial-reaction-time,1,R,5,1,77,1243,0,2,297.2000000476837,322,L
2022-12-06T10:37:14Z,td18pjfx,serial-reaction-time,1,P,5,1,78,1243,0,4,1001.1000001430511,224,H
2022-12-06T10:37:14Z,td18pjfx,serial-reaction-time,1,R,5,1,79,1243,0,1,361.59999990463257,241,L
2022-12-06T10:37:15Z,td18pjfx,serial-reaction-time,1,P,5,1,80,1243,0,3,890,413,H
2022-12-06T10:37:20Z,td18pjfx,html-keyboard-response,NA,NA,NA,NA,NA,NA,NA,NA,NA,NA,NA
2022-12-06T10:37:23Z,td18pjfx,html-keyboard-response,NA,NA,NA,NA,NA,NA,NA,NA,NA,NA,NA
2022-12-06T10:37:24Z,td18pjfx,fullscreen,NA,NA,NA,NA,NA,NA,NA,NA,NA,NA,NA
2022-12-06T17:21:34Z,i0g6t95m,fullscreen,NA,NA,NA,NA,NA,NA,NA,NA,NA,NA,NA
2022-12-06T17:21:39Z,i0g6t95m,html-keyboard-response,NA,NA,NA,NA,NA,NA,NA,NA,NA,NA,NA
2022-12-06T17:21:41Z,i0g6t95m,serial-reaction-time,1,R,1,1,1,1243,0,1,426.3999999985099,1,X
2022-12-06T17:21:41Z,i0g6t95m,serial-reaction-time,1,P,1,1,2,1243,0,1,277.8999999985099,11,X
2022-12-06T17:21:42Z,i0g6t95m,serial-reaction-time,1,R,1,1,3,1243,0,3,527.2999999970198,113,L
2022-12-06T17:21:42Z,i0g6t95m,serial-reaction-time,1,P,1,1,4,1243,0,2,341.5,132,H
2022-12-06T17:21:43Z,i0g6t95m,serial-reaction-time,1,R,1,1,5,1243,0,4,365.69999999925494,324,L
2022-12-06T17:21:43Z,i0g6t95m,serial-reaction-time,1,P,1,1,6,1243,0,4,305,244,H
2022-12-06T17:21:44Z,i0g6t95m,serial-reaction-time,1,R,1,1,7,1243,0,1,406.30000000074506,441,L
2022-12-06T17:21:44Z,i0g6t95m,serial-reaction-time,1,P,1,1,8,1243,0,3,283.5,413,H
2022-12-06T17:21:44Z,i0g6t95m,serial-reaction-time,NA,R,1,1,9,1243,0,1,194.69999999925497,131,T
2022-12-06T17:21:45Z,i0g6t95m,serial-reaction-time,1,R,1,0,9,1243,0,1,409.80000000074506,131,T
2022-12-06T17:21:45Z,i0g6t95m,serial-reaction-time,1,P,1,1,10,1243,0,1,295,311,H
2022-12-06T17:21:45Z,i0g6t95m,serial-reaction-time,1,R,1,1,11,1243,0,4,347.8999999985099,114,L
2022-12-06T17:21:46Z,i0g6t95m,serial-reaction-time,1,P,1,1,12,1243,0,2,369.3999999985099,142,H
2022-12-06T17:21:46Z,i0g6t95m,serial-reaction-time,1,R,1,1,13,1243,0,2,305.5999999977648,422,L
2022-12-06T17:21:47Z,i0g6t95m,serial-reaction-time,1,P,1,1,14,1243,0,4,348.30000000074506,224,H
2022-12-06T17:21:47Z,i0g6t95m,serial-reaction-time,1,R,1,1,15,1243,0,1,377.8999999985099,241,L
2022-12-06T17:21:48Z,i0g6t95m,serial-reaction-time,1,P,1,1,16,1243,0,3,335,413,H
2022-12-06T17:21:48Z,i0g6t95m,serial-reaction-time,1,R,1,1,17,1243,0,1,403.20000000298023,131,T
2022-12-06T17:21:49Z,i0g6t95m,serial-reaction-time,1,P,1,1,18,1243,0,1,290.9000000022352,311,H
2022-12-06T17:21:49Z,i0g6t95m,serial-reaction-time,1,R,1,1,19,1243,0,3,331.8999999985099,113,L
2022-12-06T17:21:50Z,i0g6t95m,serial-reaction-time,1,P,1,1,20,1243,0,2,388.69999999925494,132,H
2022-12-06T17:21:50Z,i0g6t95m,serial-reaction-time,1,R,1,1,21,1243,0,2,288.30000000074506,322,L
2022-12-06T17:21:51Z,i0g6t95m,serial-reaction-time,1,P,1,1,22,1243,0,4,297.80000000074506,224,H
2022-12-06T17:21:51Z,i0g6t95m,serial-reaction-time,1,R,1,1,23,1243,0,1,304.20000000298023,241,L
2022-12-06T17:21:52Z,i0g6t95m,serial-reaction-time,1,P,1,1,24,1243,0,3,317.30000000074506,413,H
2022-12-06T17:21:52Z,i0g6t95m,serial-reaction-time,1,R,1,1,25,1243,0,2,342.5,132,H
2022-12-06T17:21:53Z,i0g6t95m,serial-reaction-time,1,P,1,1,26,1243,0,1,374.5,321,H
2022-12-06T17:21:53Z,i0g6t95m,serial-reaction-time,1,R,1,1,27,1243,0,4,321.19999999925494,214,H
2022-12-06T17:21:54Z,i0g6t95m,serial-reaction-time,1,P,1,1,28,1243,0,2,317.9000000022352,142,H
2022-12-06T17:21:54Z,i0g6t95m,serial-reaction-time,1,R,1,1,29,1243,0,4,352.5,424,T
2022-12-06T17:21:55Z,i0g6t95m,serial-reaction-time,1,P,1,1,30,1243,0,4,410.5999999977648,244,H
2022-12-06T17:21:55Z,i0g6t95m,serial-reaction-time,1,R,1,1,31,1243,0,2,387.8999999985099,442,L
2022-12-06T17:21:56Z,i0g6t95m,serial-reaction-time,1,P,1,1,32,1243,0,3,362,423,H
2022-12-06T17:21:56Z,i0g6t95m,serial-reaction-time,NA,R,1,1,33,1243,0,2,236.69999999925497,232,T
2022-12-06T17:21:56Z,i0g6t95m,serial-reaction-time,NA,R,1,0,33,1243,0,2,415.5999999977648,232,T
2022-12-06T17:21:56Z,i0g6t95m,serial-reaction-time,1,R,1,0,33,1243,0,2,620.8999999985099,232,T
2022-12-06T17:21:57Z,i0g6t95m,serial-reaction-time,1,P,1,1,34,1243,0,1,384.20000000298023,321,H
2022-12-06T17:21:58Z,i0g6t95m,serial-reaction-time,NA,R,1,1,35,1243,0,2,579.5,212,T
2022-12-06T17:21:58Z,i0g6t95m,serial-reaction-time,1,R,1,0,35,1243,0,2,794.1999999992549,212,T
2022-12-06T17:21:58Z,i0g6t95m,serial-reaction-time,1,P,1,1,36,1243,0,2,323.30000000074506,122,H
2022-12-06T17:21:59Z,i0g6t95m,serial-reaction-time,1,R,1,1,37,1243,0,3,669.1000000014901,223,L
2022-12-06T17:22:00Z,i0g6t95m,serial-reaction-time,1,P,1,1,38,1243,0,4,374.30000000074506,234,H
2022-12-06T17:22:00Z,i0g6t95m,serial-reaction-time,1,R,1,1,39,1243,0,3,562.1999999992549,343,T
2022-12-06T17:22:01Z,i0g6t95m,serial-reaction-time,1,P,1,1,40,1243,0,3,351.19999999925494,433,H
2022-12-06T17:22:01Z,i0g6t95m,serial-reaction-time,1,R,1,1,41,1243,0,4,364.3999999985099,334,L
2022-12-06T17:22:02Z,i0g6t95m,serial-reaction-time,1,P,1,1,42,1243,0,1,388.3999999985099,341,H
2022-12-06T17:22:02Z,i0g6t95m,serial-reaction-time,1,R,1,1,43,1243,0,1,298.5,411,L
2022-12-06T17:22:03Z,i0g6t95m,serial-reaction-time,1,P,1,1,44,1243,0,2,349.30000000074506,112,H
2022-12-06T17:22:03Z,i0g6t95m,serial-reaction-time,1,R,1,1,45,1243,0,2,276.5,122,H
2022-12-06T17:22:04Z,i0g6t95m,serial-reaction-time,1,P,1,1,46,1243,0,4,353.8999999985099,224,H
2022-12-06T17:22:04Z,i0g6t95m,serial-reaction-time,1,R,1,1,47,1243,0,1,375.5,241,L
2022-12-06T17:22:05Z,i0g6t95m,serial-reaction-time,1,P,1,1,48,1243,0,3,349.4000000022352,413,H
2022-12-06T17:22:05Z,i0g6t95m,serial-reaction-time,1,R,1,1,49,1243,0,4,453.3999999985099,134,L
2022-12-06T17:22:06Z,i0g6t95m,serial-reaction-time,1,P,1,1,50,1243,0,1,297.3999999985099,341,H
2022-12-06T17:22:06Z,i0g6t95m,serial-reaction-time,1,R,1,1,51,1243,0,1,365.69999999925494,411,L
2022-12-06T17:22:06Z,i0g6t95m,serial-reaction-time,1,P,1,1,52,1243,0,2,293.80000000074506,112,H
2022-12-06T17:22:07Z,i0g6t95m,serial-reaction-time,1,R,1,1,53,1243,0,4,331.19999999925494,124,L
2022-12-06T17:22:07Z,i0g6t95m,serial-reaction-time,1,P,1,1,54,1243,0,4,323.5,244,H
2022-12-06T17:22:08Z,i0g6t95m,serial-reaction-time,1,R,1,1,55,1243,0,2,319.80000000074506,442,L
2022-12-06T17:22:08Z,i0g6t95m,serial-reaction-time,1,P,1,1,56,1243,0,3,376.5,423,H
2022-12-06T17:22:09Z,i0g6t95m,serial-reaction-time,1,R,1,1,57,1243,0,3,360.29999999701977,233,L
2022-12-06T17:22:09Z,i0g6t95m,serial-reaction-time,1,P,1,1,58,1243,0,1,373.4000000022352,331,H
2022-12-06T17:22:10Z,i0g6t95m,serial-reaction-time,1,R,1,1,59,1243,0,4,352.9000000022352,314,L
2022-12-06T17:22:10Z,i0g6t95m,serial-reaction-time,1,P,1,1,60,1243,0,2,419.70000000298023,142,H
2022-12-06T17:22:11Z,i0g6t95m,serial-reaction-time,1,R,1,1,61,1243,0,2,289.9000000022352,422,L
2022-12-06T17:22:11Z,i0g6t95m,serial-reaction-time,1,P,1,1,62,1243,0,4,304.3999999985099,224,H
2022-12-06T17:22:12Z,i0g6t95m,serial-reaction-time,NA,R,1,1,63,1243,0,3,324.5999999977648,243,L
2022-12-06T17:22:12Z,i0g6t95m,serial-reaction-time,1,R,1,0,63,1243,0,3,624.6999999992549,243,L
2022-12-06T17:22:12Z,i0g6t95m,serial-reaction-time,1,P,1,1,64,1243,0,3,343.9000000022352,433,H
2022-12-06T17:22:13Z,i0g6t95m,serial-reaction-time,1,R,1,1,65,1243,0,2,576.8000000007451,332,L
2022-12-06T17:22:14Z,i0g6t95m,serial-reaction-time,1,P,1,1,66,1243,0,1,353.5,321,H
2022-12-06T17:22:14Z,i0g6t95m,serial-reaction-time,1,R,1,1,67,1243,0,2,444.4000000022352,212,T
2022-12-06T17:22:15Z,i0g6t95m,serial-reaction-time,1,P,1,1,68,1243,0,2,309.3999999985099,122,H
2022-12-06T17:22:15Z,i0g6t95m,serial-reaction-time,1,R,1,1,69,1243,0,4,403.3999999985099,224,H
2022-12-06T17:22:16Z,i0g6t95m,serial-reaction-time,1,P,1,1,70,1243,0,4,337.5,244,H
2022-12-06T17:22:16Z,i0g6t95m,serial-reaction-time,1,R,1,1,71,1243,0,4,330.8999999985099,444,R
2022-12-06T17:22:17Z,i0g6t95m,serial-reaction-time,NA,P,1,1,72,1243,0,3,416.30000000074506,443,H
2022-12-06T17:22:17Z,i0g6t95m,serial-reaction-time,1,P,1,0,72,1243,0,3,548.5000000037253,443,H
2022-12-06T17:22:18Z,i0g6t95m,serial-reaction-time,1,R,1,1,73,1243,0,4,586,434,T
2022-12-06T17:22:18Z,i0g6t95m,serial-reaction-time,1,P,1,1,74,1243,0,1,466.5999999977648,341,H
2022-12-06T17:22:19Z,i0g6t95m,serial-reaction-time,1,R,1,1,75,1243,0,2,405.5,412,L
2022-12-06T17:22:19Z,i0g6t95m,serial-reaction-time,1,P,1,1,76,1243,0,2,310.80000000074506,122,H
2022-12-06T17:22:20Z,i0g6t95m,serial-reaction-time,1,R,1,1,77,1243,0,3,762.1000000014901,223,L
2022-12-06T17:22:21Z,i0g6t95m,serial-reaction-time,1,P,1,1,78,1243,0,4,1060.39999999851,234,H
2022-12-06T17:22:22Z,i0g6t95m,serial-reaction-time,1,R,1,1,79,1243,0,2,440.4000000022352,342,L
2022-12-06T17:22:22Z,i0g6t95m,serial-reaction-time,1,P,1,1,80,1243,0,3,375.69999999925494,423,H
2022-12-06T17:22:27Z,i0g6t95m,html-keyboard-response,NA,NA,NA,NA,NA,NA,NA,NA,NA,NA,NA
2022-12-06T17:22:28Z,i0g6t95m,html-keyboard-response,NA,NA,NA,NA,NA,NA,NA,NA,NA,NA,NA
2022-12-06T17:22:30Z,i0g6t95m,serial-reaction-time,1,R,2,1,1,1243,0,1,714.2000000029802,1,X
2022-12-06T17:22:30Z,i0g6t95m,serial-reaction-time,1,P,2,1,2,1243,0,1,335.4000000022352,11,X
2022-12-06T17:22:31Z,i0g6t95m,serial-reaction-time,1,R,2,1,3,1243,0,3,465.5,113,L
2022-12-06T17:22:31Z,i0g6t95m,serial-reaction-time,1,P,2,1,4,1243,0,2,364.30000000074506,132,H
2022-12-06T17:22:32Z,i0g6t95m,serial-reaction-time,NA,R,2,1,5,1243,0,3,453.80000000074506,323,T
2022-12-06T17:22:32Z,i0g6t95m,serial-reaction-time,1,R,2,0,5,1243,0,3,744,323,T
2022-12-06T17:22:33Z,i0g6t95m,serial-reaction-time,1,P,2,1,6,1243,0,4,353.5999999977648,234,H
2022-12-06T17:22:33Z,i0g6t95m,serial-reaction-time,1,R,2,1,7,1243,0,3,390.4000000022352,343,T
2022-12-06T17:22:34Z,i0g6t95m,serial-reaction-time,1,P,2,1,8,1243,0,3,374,433,H
2022-12-06T17:22:34Z,i0g6t95m,serial-reaction-time,1,R,2,1,9,1243,0,2,410.80000000074506,332,L
2022-12-06T17:22:35Z,i0g6t95m,serial-reaction-time,1,P,2,1,10,1243,0,1,398,321,H
2022-12-06T17:22:35Z,i0g6t95m,serial-reaction-time,1,R,2,1,11,1243,0,1,297.5999999977648,211,L
2022-12-06T17:22:36Z,i0g6t95m,serial-reaction-time,NA,P,2,1,12,1243,0,2,348.80000000074506,112,H
2022-12-06T17:22:36Z,i0g6t95m,serial-reaction-time,1,P,2,0,12,1243,0,2,530.1000000014901,112,H
2022-12-06T17:22:36Z,i0g6t95m,serial-reaction-time,1,R,2,1,13,1243,0,2,309.8999999985099,122,H
2022-12-06T17:22:37Z,i0g6t95m,serial-reaction-time,1,P,2,1,14,1243,0,4,395.5,224,H
2022-12-06T17:22:37Z,i0g6t95m,serial-reaction-time,1,R,2,1,15,1243,0,1,444.19999999925494,241,L
2022-12-06T17:22:38Z,i0g6t95m,serial-reaction-time,1,P,2,1,16,1243,0,3,356.19999999925494,413,H
2022-12-06T17:22:38Z,i0g6t95m,serial-reaction-time,1,R,2,1,17,1243,0,1,410.3999999985099,131,T
2022-12-06T17:22:39Z,i0g6t95m,serial-reaction-time,1,P,2,1,18,1243,0,1,353.5999999977648,311,H
2022-12-06T17:22:39Z,i0g6t95m,serial-reaction-time,1,R,2,1,19,1243,0,4,353.29999999701977,114,L
2022-12-06T17:22:40Z,i0g6t95m,serial-reaction-time,1,P,2,1,20,1243,0,2,390.70000000298023,142,H
2022-12-06T17:22:40Z,i0g6t95m,serial-reaction-time,1,R,2,1,21,1243,0,4,429.80000000074506,424,T
2022-12-06T17:22:41Z,i0g6t95m,serial-reaction-time,1,P,2,1,22,1243,0,4,346.19999999925494,244,H
2022-12-06T17:22:41Z,i0g6t95m,serial-reaction-time,1,R,2,1,23,1243,0,4,390.30000000074506,444,R
2022-12-06T17:22:42Z,i0g6t95m,serial-reaction-time,1,P,2,1,24,1243,0,3,356.9000000022352,443,H
2022-12-06T17:22:42Z,i0g6t95m,serial-reaction-time,1,R,2,1,25,1243,0,2,417,432,L
2022-12-06T17:22:43Z,i0g6t95m,serial-reaction-time,1,P,2,1,26,1243,0,1,483.8999999985099,321,H
2022-12-06T17:22:44Z,i0g6t95m,serial-reaction-time,1,R,2,1,27,1243,0,3,387.1000000014901,213,L
2022-12-06T17:22:44Z,i0g6t95m,serial-reaction-time,1,P,2,1,28,1243,0,2,470,132,H
2022-12-06T17:22:45Z,i0g6t95m,serial-reaction-time,NA,R,2,1,29,1243,0,3,358.9000000022352,323,T
2022-12-06T17:22:45Z,i0g6t95m,serial-reaction-time,1,R,2,0,29,1243,0,3,690.0000000037253,323,T
2022-12-06T17:22:45Z,i0g6t95m,serial-reaction-time,1,P,2,1,30,1243,0,4,357.5999999977648,234,H
2022-12-06T17:22:46Z,i0g6t95m,serial-reaction-time,1,R,2,1,31,1243,0,1,509.69999999925494,341,H
2022-12-06T17:22:47Z,i0g6t95m,serial-reaction-time,1,P,2,1,32,1243,0,3,367.8999999985099,413,H
2022-12-06T17:22:47Z,i0g6t95m,serial-reaction-time,1,R,2,1,33,1243,0,1,373.80000000074506,131,T
2022-12-06T17:22:48Z,i0g6t95m,serial-reaction-time,1,P,2,1,34,1243,0,1,369.1000000014901,311,H
2022-12-06T17:22:48Z,i0g6t95m,serial-reaction-time,1,R,2,1,35,1243,0,1,373.69999999925494,111,R
2022-12-06T17:22:49Z,i0g6t95m,serial-reaction-time,1,P,2,1,36,1243,0,2,532.6999999992549,112,H
2022-12-06T17:22:49Z,i0g6t95m,serial-reaction-time,1,R,2,1,37,1243,0,2,300.30000000074506,122,H
2022-12-06T17:22:50Z,i0g6t95m,serial-reaction-time,1,P,2,1,38,1243,0,4,453.1000000014901,224,H
2022-12-06T17:22:50Z,i0g6t95m,serial-reaction-time,1,R,2,1,39,1243,0,3,513,243,L
2022-12-06T17:22:51Z,i0g6t95m,serial-reaction-time,1,P,2,1,40,1243,0,3,332.8999999985099,433,H
2022-12-06T17:22:51Z,i0g6t95m,serial-reaction-time,1,R,2,1,41,1243,0,1,384.5999999977648,331,H
2022-12-06T17:22:52Z,i0g6t95m,serial-reaction-time,1,P,2,1,42,1243,0,1,349.6000000014901,311,H
2022-12-06T17:22:52Z,i0g6t95m,serial-reaction-time,1,R,2,1,43,1243,0,2,400.5,112,H
2022-12-06T17:22:53Z,i0g6t95m,serial-reaction-time,1,P,2,1,44,1243,0,2,262.70000000298023,122,H
2022-12-06T17:22:53Z,i0g6t95m,serial-reaction-time,1,R,2,1,45,1243,0,1,484.5999999977648,221,L
2022-12-06T17:22:54Z,i0g6t95m,serial-reaction-time,1,P,2,1,46,1243,0,4,466.0999999977648,214,H
2022-12-06T17:22:55Z,i0g6t95m,serial-reaction-time,1,R,2,1,47,1243,0,1,414.9000000022352,141,T
2022-12-06T17:22:55Z,i0g6t95m,serial-reaction-time,1,P,2,1,48,1243,0,3,405.8999999985099,413,H
2022-12-06T17:22:56Z,i0g6t95m,serial-reaction-time,1,R,2,1,49,1243,0,4,457.3999999985099,134,L
2022-12-06T17:22:56Z,i0g6t95m,serial-reaction-time,1,P,2,1,50,1243,0,1,306,341,H
2022-12-06T17:22:57Z,i0g6t95m,serial-reaction-time,1,R,2,1,51,1243,0,4,536,414,T
2022-12-06T17:22:57Z,i0g6t95m,serial-reaction-time,1,P,2,1,52,1243,0,2,352.30000000074506,142,H
2022-12-06T17:22:58Z,i0g6t95m,serial-reaction-time,1,R,2,1,53,1243,0,2,326.19999999925494,422,L
2022-12-06T17:22:58Z,i0g6t95m,serial-reaction-time,1,P,2,1,54,1243,0,4,321.70000000298023,224,H
2022-12-06T17:22:59Z,i0g6t95m,serial-reaction-time,1,R,2,1,55,1243,0,4,380.8999999985099,244,H
2022-12-06T17:22:59Z,i0g6t95m,serial-reaction-time,1,P,2,1,56,1243,0,3,416,443,H
2022-12-06T17:23:00Z,i0g6t95m,serial-reaction-time,1,R,2,1,57,1243,0,3,242.29999999701977,433,H
2022-12-06T17:23:00Z,i0g6t95m,serial-reaction-time,1,P,2,1,58,1243,0,1,304.29999999701977,331,H
2022-12-06T17:23:01Z,i0g6t95m,serial-reaction-time,1,R,2,1,59,1243,0,4,364.3999999985099,314,L
2022-12-06T17:23:01Z,i0g6t95m,serial-reaction-time,1,P,2,1,60,1243,0,2,355.1000000014901,142,H
2022-12-06T17:23:01Z,i0g6t95m,serial-reaction-time,1,R,2,1,61,1243,0,3,307.0999999977648,423,H
2022-12-06T17:23:02Z,i0g6t95m,serial-reaction-time,1,P,2,1,62,1243,0,4,393.19999999925494,234,H
2022-12-06T17:23:02Z,i0g6t95m,serial-reaction-time,1,R,2,1,63,1243,0,4,358.80000000074506,344,L
2022-12-06T17:23:03Z,i0g6t95m,serial-reaction-time,1,P,2,1,64,1243,0,3,415,443,H
2022-12-06T17:23:03Z,i0g6t95m,serial-reaction-time,1,R,2,1,65,1243,0,4,332.80000000074506,434,T
2022-12-06T17:23:04Z,i0g6t95m,serial-reaction-time,1,P,2,1,66,1243,0,1,379.30000000074506,341,H
2022-12-06T17:23:04Z,i0g6t95m,serial-reaction-time,NA,R,2,1,67,1243,0,4,344.1000000014901,414,T
2022-12-06T17:23:05Z,i0g6t95m,serial-reaction-time,1,R,2,0,67,1243,0,4,694.9000000022352,414,T
2022-12-06T17:23:05Z,i0g6t95m,serial-reaction-time,1,P,2,1,68,1243,0,2,537.7999999970198,142,H
2022-12-06T17:23:06Z,i0g6t95m,serial-reaction-time,1,R,2,1,69,1243,0,4,529.6999999992549,424,T
2022-12-06T17:23:07Z,i0g6t95m,serial-reaction-time,1,P,2,1,70,1243,0,4,360.0999999977648,244,H
2022-12-06T17:23:07Z,i0g6t95m,serial-reaction-time,1,R,2,1,71,1243,0,2,399.20000000298023,442,L
2022-12-06T17:23:08Z,i0g6t95m,serial-reaction-time,1,P,2,1,72,1243,0,3,315.0999999977648,423,H
2022-12-06T17:23:08Z,i0g6t95m,serial-reaction-time,1,R,2,1,73,1243,0,3,296.3999999985099,233,L
2022-12-06T17:23:08Z,i0g6t95m,serial-reaction-time,1,P,2,1,74,1243,0,1,389.8999999985099,331,H
2022-12-06T17:23:09Z,i0g6t95m,serial-reaction-time,1,R,2,1,75,1243,0,1,306,311,H
2022-12-06T17:23:10Z,i0g6t95m,serial-reaction-time,1,P,2,1,76,1243,0,2,463.5999999977648,112,H
2022-12-06T17:23:10Z,i0g6t95m,serial-reaction-time,NA,R,2,1,77,1243,0,1,161.80000000074506,121,T
2022-12-06T17:23:10Z,i0g6t95m,serial-reaction-time,1,R,2,0,77,1243,0,1,588.6999999992549,121,T
2022-12-06T17:23:11Z,i0g6t95m,serial-reaction-time,1,P,2,1,78,1243,0,4,400.5,214,H
2022-12-06T17:23:11Z,i0g6t95m,serial-reaction-time,1,R,2,1,79,1243,0,2,453.69999999925494,142,H
2022-12-06T17:23:12Z,i0g6t95m,serial-reaction-time,1,P,2,1,80,1243,0,3,591,423,H
2022-12-06T17:23:17Z,i0g6t95m,html-keyboard-response,NA,NA,NA,NA,NA,NA,NA,NA,NA,NA,NA
2022-12-06T17:23:18Z,i0g6t95m,html-keyboard-response,NA,NA,NA,NA,NA,NA,NA,NA,NA,NA,NA
