datetime,id,trial_type,correct,p_or_r,block,first_response,trial_number,sequence,is_practice,correct_pos,cumulative_rt,actual_triplet,triplet_type
2023-04-27T23:54:23Z,yk3unkzo,fullscreen,NA,NA,NA,NA,NA,NA,NA,NA,NA,NA,NA
2023-04-27T23:54:23Z,yk3unkzo,html-keyboard-response,NA,NA,NA,NA,NA,NA,NA,NA,NA,NA,NA
2023-04-27T23:54:25Z,yk3unkzo,serial-reaction-time,1,R,1,1,1,4123,0,4,387.6000000014901,4,X
2023-04-27T23:54:25Z,yk3unkzo,serial-reaction-time,1,P,1,1,2,4123,0,4,226.19999999925497,44,X
2023-04-27T23:54:25Z,yk3unkzo,serial-reaction-time,NA,R,1,1,3,4123,0,2,185.7000000011176,442,L
2023-04-27T23:54:26Z,yk3unkzo,serial-reaction-time,NA,R,1,0,3,4123,0,2,367.4000000003726,442,L
2023-04-27T23:54:26Z,yk3unkzo,serial-reaction-time,1,R,1,0,3,4123,0,2,772.3000000007451,442,L
2023-04-27T23:54:27Z,yk3unkzo,serial-reaction-time,1,P,1,1,4,4123,0,1,351.5,421,H
2023-04-27T23:54:27Z,yk3unkzo,serial-reaction-time,NA,R,1,1,5,4123,0,4,245.5,214,L
2023-04-27T23:54:27Z,yk3unkzo,serial-reaction-time,1,R,1,0,5,4123,0,4,392.4000000003726,214,L
2023-04-27T23:54:28Z,yk3unkzo,serial-reaction-time,NA,P,1,1,6,4123,0,2,407.19999999925494,142,H
2023-04-27T23:54:28Z,yk3unkzo,serial-reaction-time,1,P,1,0,6,4123,0,2,478.7999999988824,142,H
2023-04-27T23:54:28Z,yk3unkzo,serial-reaction-time,1,R,1,1,7,4123,0,3,353,423,L
2023-04-27T23:54:29Z,yk3unkzo,serial-reaction-time,1,P,1,1,8,4123,0,3,300.30000000074506,233,H
2023-04-27T23:54:29Z,yk3unkzo,serial-reaction-time,1,R,1,1,9,4123,0,1,300.90000000037253,331,L
2023-04-27T23:54:30Z,yk3unkzo,serial-reaction-time,1,P,1,1,10,4123,0,4,340,314,H
2023-04-27T23:54:30Z,yk3unkzo,serial-reaction-time,1,R,1,1,11,4123,0,2,385.0999999996274,142,H
2023-04-27T23:54:31Z,yk3unkzo,serial-reaction-time,1,P,1,1,12,4123,0,1,517.8999999985099,421,H
2023-04-27T23:54:31Z,yk3unkzo,serial-reaction-time,1,R,1,1,13,4123,0,4,381.5,214,L
2023-04-27T23:54:32Z,yk3unkzo,serial-reaction-time,1,P,1,1,14,4123,0,2,348.2000000011176,142,H
2023-04-27T23:54:32Z,yk3unkzo,serial-reaction-time,1,R,1,1,15,4123,0,1,313.80000000074506,421,H
2023-04-27T23:54:33Z,yk3unkzo,serial-reaction-time,1,P,1,1,16,4123,0,3,525.2999999988824,213,H
2023-04-27T23:54:33Z,yk3unkzo,serial-reaction-time,1,R,1,1,17,4123,0,3,273.7000000011176,133,L
2023-04-27T23:54:34Z,yk3unkzo,serial-reaction-time,1,P,1,1,18,4123,0,4,334.7000000011176,334,H
2023-04-27T23:54:34Z,yk3unkzo,serial-reaction-time,1,R,1,1,19,4123,0,2,335,342,L
2023-04-27T23:54:35Z,yk3unkzo,serial-reaction-time,1,P,1,1,20,4123,0,1,309.30000000074506,421,H
2023-04-27T23:54:35Z,yk3unkzo,serial-reaction-time,1,R,1,1,21,4123,0,3,318.59999999962747,213,H
2023-04-27T23:54:36Z,yk3unkzo,serial-reaction-time,1,P,1,1,22,4123,0,2,478.0999999996274,132,H
2023-04-27T23:54:36Z,yk3unkzo,serial-reaction-time,1,R,1,1,23,4123,0,4,331.5,324,H
2023-04-27T23:54:37Z,yk3unkzo,serial-reaction-time,1,P,1,1,24,4123,0,3,337.30000000074506,243,H
2023-04-27T23:54:37Z,yk3unkzo,serial-reaction-time,1,R,1,1,25,4123,0,2,337.19999999925494,432,L
2023-04-27T23:54:38Z,yk3unkzo,serial-reaction-time,1,P,1,1,26,4123,0,4,344.5,324,H
2023-04-27T23:54:38Z,yk3unkzo,serial-reaction-time,1,R,1,1,27,4123,0,3,327.7000000011176,243,H
2023-04-27T23:54:39Z,yk3unkzo,serial-reaction-time,1,P,1,1,28,4123,0,1,348.80000000074506,431,H
2023-04-27T23:54:39Z,yk3unkzo,serial-reaction-time,1,R,1,1,29,4123,0,4,335.59999999962747,314,H
2023-04-27T23:54:40Z,yk3unkzo,serial-reaction-time,1,P,1,1,30,4123,0,2,361.0999999996274,142,H
2023-04-27T23:54:40Z,yk3unkzo,serial-reaction-time,1,R,1,1,31,4123,0,4,320.30000000074506,424,T
2023-04-27T23:54:41Z,yk3unkzo,serial-reaction-time,1,P,1,1,32,4123,0,3,399.4000000003726,243,H
2023-04-27T23:54:41Z,yk3unkzo,serial-reaction-time,1,R,1,1,33,4123,0,3,300.69999999925494,433,L
2023-04-27T23:54:41Z,yk3unkzo,serial-reaction-time,1,P,1,1,34,4123,0,4,344,334,H
2023-04-27T23:54:42Z,yk3unkzo,serial-reaction-time,1,R,1,1,35,4123,0,4,342.2999999988824,344,H
2023-04-27T23:54:42Z,yk3unkzo,serial-reaction-time,1,P,1,1,36,4123,0,1,418.19999999925494,441,H
2023-04-27T23:54:43Z,yk3unkzo,serial-reaction-time,1,R,1,1,37,4123,0,2,427,412,L
2023-04-27T23:54:44Z,yk3unkzo,serial-reaction-time,1,P,1,1,38,4123,0,2,299,122,H
2023-04-27T23:54:44Z,yk3unkzo,serial-reaction-time,1,R,1,1,39,4123,0,3,485.19999999925494,223,H
2023-04-27T23:54:45Z,yk3unkzo,serial-reaction-time,1,P,1,1,40,4123,0,3,332,233,H
2023-04-27T23:54:45Z,yk3unkzo,serial-reaction-time,1,R,1,1,41,4123,0,4,354,334,H
2023-04-27T23:54:46Z,yk3unkzo,serial-reaction-time,1,P,1,1,42,4123,0,4,365.7000000011176,344,H
2023-04-27T23:54:46Z,yk3unkzo,serial-reaction-time,NA,R,1,1,43,4123,0,3,308.19999999925494,443,L
2023-04-27T23:54:46Z,yk3unkzo,serial-reaction-time,1,R,1,0,43,4123,0,3,620.1999999992549,443,L
2023-04-27T23:54:47Z,yk3unkzo,serial-reaction-time,1,P,1,1,44,4123,0,1,442.9000000003726,431,H
2023-04-27T23:54:47Z,yk3unkzo,serial-reaction-time,1,R,1,1,45,4123,0,4,350.09999999962747,314,H
2023-04-27T23:54:48Z,yk3unkzo,serial-reaction-time,NA,P,1,1,46,4123,0,2,401.69999999925494,142,H
2023-04-27T23:54:48Z,yk3unkzo,serial-reaction-time,1,P,1,0,46,4123,0,2,452.5999999977648,142,H
2023-04-27T23:54:49Z,yk3unkzo,serial-reaction-time,1,R,1,1,47,4123,0,3,444.5999999996274,423,L
2023-04-27T23:54:49Z,yk3unkzo,serial-reaction-time,1,P,1,1,48,4123,0,3,318.40000000037253,233,H
2023-04-27T23:54:50Z,yk3unkzo,serial-reaction-time,1,R,1,1,49,4123,0,3,303.19999999925494,333,R
2023-04-27T23:54:50Z,yk3unkzo,serial-reaction-time,1,P,1,1,50,4123,0,4,342.30000000074506,334,H
2023-04-27T23:54:50Z,yk3unkzo,serial-reaction-time,NA,R,1,1,51,4123,0,2,328.19999999925494,342,L
2023-04-27T23:54:51Z,yk3unkzo,serial-reaction-time,1,R,1,0,51,4123,0,2,638.5999999996275,342,L
2023-04-27T23:54:51Z,yk3unkzo,serial-reaction-time,1,P,1,1,52,4123,0,1,347,421,H
2023-04-27T23:54:52Z,yk3unkzo,serial-reaction-time,1,R,1,1,53,4123,0,1,253.19999999925497,211,L
2023-04-27T23:54:52Z,yk3unkzo,serial-reaction-time,1,P,1,1,54,4123,0,2,434.7999999988824,112,H
2023-04-27T23:54:53Z,yk3unkzo,serial-reaction-time,1,R,1,1,55,4123,0,4,383.5999999996274,124,L
2023-04-27T23:54:53Z,yk3unkzo,serial-reaction-time,1,P,1,1,56,4123,0,3,387.4000000003726,243,H
2023-04-27T23:54:54Z,yk3unkzo,serial-reaction-time,1,R,1,1,57,4123,0,3,313.7000000011176,433,L
2023-04-27T23:54:54Z,yk3unkzo,serial-reaction-time,NA,P,1,1,58,4123,0,4,339,334,H
2023-04-27T23:54:54Z,yk3unkzo,serial-reaction-time,1,P,1,0,58,4123,0,4,414.4000000003726,334,H
2023-04-27T23:54:55Z,yk3unkzo,serial-reaction-time,1,R,1,1,59,4123,0,2,482.0999999996274,342,L
2023-04-27T23:54:55Z,yk3unkzo,serial-reaction-time,1,P,1,1,60,4123,0,1,365.19999999925494,421,H
2023-04-27T23:54:56Z,yk3unkzo,serial-reaction-time,NA,R,1,1,61,4123,0,2,294.6000000014901,212,T
2023-04-27T23:54:56Z,yk3unkzo,serial-reaction-time,1,R,1,0,61,4123,0,2,621.2000000011176,212,T
2023-04-27T23:54:57Z,yk3unkzo,serial-reaction-time,1,P,1,1,62,4123,0,2,302.3999999985099,122,H
2023-04-27T23:54:57Z,yk3unkzo,serial-reaction-time,1,R,1,1,63,4123,0,2,315.09999999962747,222,R
2023-04-27T23:54:57Z,yk3unkzo,serial-reaction-time,1,P,1,1,64,4123,0,3,353.80000000074506,223,H
2023-04-27T23:54:58Z,yk3unkzo,serial-reaction-time,1,R,1,1,65,4123,0,3,300.19999999925494,233,H
2023-04-27T23:54:58Z,yk3unkzo,serial-reaction-time,1,P,1,1,66,4123,0,4,392.4000000003726,334,H
2023-04-27T23:54:59Z,yk3unkzo,serial-reaction-time,1,R,1,1,67,4123,0,1,351.80000000074506,341,L
2023-04-27T23:54:59Z,yk3unkzo,serial-reaction-time,1,P,1,1,68,4123,0,1,318.80000000074506,411,H
2023-04-27T23:55:00Z,yk3unkzo,serial-reaction-time,1,R,1,1,69,4123,0,2,346.30000000074506,112,H
2023-04-27T23:55:00Z,yk3unkzo,serial-reaction-time,1,P,1,1,70,4123,0,2,309.19999999925494,122,H
2023-04-27T23:55:01Z,yk3unkzo,serial-reaction-time,1,R,1,1,71,4123,0,4,430.7999999988824,224,L
2023-04-27T23:55:01Z,yk3unkzo,serial-reaction-time,1,P,1,1,72,4123,0,3,454.5,243,H
2023-04-27T23:55:02Z,yk3unkzo,serial-reaction-time,1,R,1,1,73,4123,0,1,326.8999999985099,431,H
2023-04-27T23:55:02Z,yk3unkzo,serial-reaction-time,1,P,1,1,74,4123,0,4,343.40000000037253,314,H
2023-04-27T23:55:03Z,yk3unkzo,serial-reaction-time,1,R,1,1,75,4123,0,4,350.6000000014901,144,L
2023-04-27T23:55:03Z,yk3unkzo,serial-reaction-time,1,P,1,1,76,4123,0,1,369.9000000003726,441,H
2023-04-27T23:55:04Z,yk3unkzo,serial-reaction-time,1,R,1,1,77,4123,0,4,384.9000000003726,414,T
2023-04-27T23:55:04Z,yk3unkzo,serial-reaction-time,1,P,1,1,78,4123,0,2,475.5999999996274,142,H
2023-04-27T23:55:05Z,yk3unkzo,serial-reaction-time,1,R,1,1,79,4123,0,3,400,423,L
2023-04-27T23:55:05Z,yk3unkzo,serial-reaction-time,1,P,1,1,80,4123,0,3,304,233,H
2023-04-27T23:55:10Z,yk3unkzo,html-keyboard-response,NA,NA,NA,NA,NA,NA,NA,NA,NA,NA,NA
2023-04-27T23:55:11Z,yk3unkzo,html-keyboard-response,NA,NA,NA,NA,NA,NA,NA,NA,NA,NA,NA
2023-04-27T23:55:13Z,yk3unkzo,serial-reaction-time,1,R,2,1,1,4123,0,1,509.19999999925494,1,X
2023-04-27T23:55:13Z,yk3unkzo,serial-reaction-time,1,P,2,1,2,4123,0,4,323.59999999962747,14,X
2023-04-27T23:55:13Z,yk3unkzo,serial-reaction-time,1,R,2,1,3,4123,0,4,249.19999999925497,144,L
2023-04-27T23:55:14Z,yk3unkzo,serial-reaction-time,1,P,2,1,4,4123,0,1,288,441,H
2023-04-27T23:55:14Z,yk3unkzo,serial-reaction-time,1,R,2,1,5,4123,0,1,335.59999999962747,411,H
2023-04-27T23:55:15Z,yk3unkzo,serial-reaction-time,1,P,2,1,6,4123,0,2,433.4000000003726,112,H
2023-04-27T23:55:15Z,yk3unkzo,serial-reaction-time,1,R,2,1,7,4123,0,1,409.6000000014901,121,T
2023-04-27T23:55:16Z,yk3unkzo,serial-reaction-time,1,P,2,1,8,4123,0,3,374.0999999996274,213,H
2023-04-27T23:55:17Z,yk3unkzo,serial-reaction-time,1,R,2,1,9,4123,0,2,424,132,H
2023-04-27T23:55:17Z,yk3unkzo,serial-reaction-time,1,P,2,1,10,4123,0,4,340,324,H
2023-04-27T23:55:18Z,yk3unkzo,serial-reaction-time,1,R,2,1,11,4123,0,2,388.30000000074506,242,T
2023-04-27T23:55:18Z,yk3unkzo,serial-reaction-time,1,P,2,1,12,4123,0,1,424.5,421,H
2023-04-27T23:55:18Z,yk3unkzo,serial-reaction-time,1,R,2,1,13,4123,0,1,291.80000000074506,211,L
2023-04-27T23:55:19Z,yk3unkzo,serial-reaction-time,NA,P,2,1,14,4123,0,2,357.59999999962747,112,H
2023-04-27T23:55:19Z,yk3unkzo,serial-reaction-time,1,P,2,0,14,4123,0,2,620.5999999996275,112,H
2023-04-27T23:55:20Z,yk3unkzo,serial-reaction-time,1,R,2,1,15,4123,0,1,415.7999999988824,121,T
2023-04-27T23:55:20Z,yk3unkzo,serial-reaction-time,1,P,2,1,16,4123,0,3,404.5,213,H
2023-04-27T23:55:21Z,yk3unkzo,serial-reaction-time,1,R,2,1,17,4123,0,1,361.3999999985099,131,T
2023-04-27T23:55:21Z,yk3unkzo,serial-reaction-time,1,P,2,1,18,4123,0,4,400.2000000011176,314,H
2023-04-27T23:55:22Z,yk3unkzo,serial-reaction-time,1,R,2,1,19,4123,0,3,474.9000000003726,143,L
2023-04-27T23:55:22Z,yk3unkzo,serial-reaction-time,1,P,2,1,20,4123,0,1,346.90000000037253,431,H
2023-04-27T23:55:23Z,yk3unkzo,serial-reaction-time,1,R,2,1,21,4123,0,4,358.8999999985099,314,H
2023-04-27T23:55:23Z,yk3unkzo,serial-reaction-time,1,P,2,1,22,4123,0,2,416.80000000074506,142,H
2023-04-27T23:55:24Z,yk3unkzo,serial-reaction-time,1,R,2,1,23,4123,0,1,282.40000000037253,421,H
2023-04-27T23:55:25Z,yk3unkzo,serial-reaction-time,1,P,2,1,24,4123,0,3,522,213,H
2023-04-27T23:55:25Z,yk3unkzo,serial-reaction-time,1,R,2,1,25,4123,0,2,466,132,H
2023-04-27T23:55:26Z,yk3unkzo,serial-reaction-time,1,P,2,1,26,4123,0,4,458.30000000074506,324,H
2023-04-27T23:55:26Z,yk3unkzo,serial-reaction-time,1,R,2,1,27,4123,0,1,411.9000000003726,241,L
2023-04-27T23:55:27Z,yk3unkzo,serial-reaction-time,1,P,2,1,28,4123,0,1,302.19999999925494,411,H
2023-04-27T23:55:27Z,yk3unkzo,serial-reaction-time,1,R,2,1,29,4123,0,4,370.2999999988824,114,L
2023-04-27T23:55:28Z,yk3unkzo,serial-reaction-time,1,P,2,1,30,4123,0,2,355.59999999962747,142,H
2023-04-27T23:55:28Z,yk3unkzo,serial-reaction-time,1,R,2,1,31,4123,0,2,538.5999999996275,422,L
2023-04-27T23:55:29Z,yk3unkzo,serial-reaction-time,1,P,2,1,32,4123,0,3,412.5,223,H
2023-04-27T23:55:30Z,yk3unkzo,serial-reaction-time,1,R,2,1,33,4123,0,1,443.3999999985099,231,L
2023-04-27T23:55:30Z,yk3unkzo,serial-reaction-time,1,P,2,1,34,4123,0,4,387.4000000003726,314,H
2023-04-27T23:55:30Z,yk3unkzo,serial-reaction-time,1,R,2,1,35,4123,0,4,349.80000000074506,144,L
2023-04-27T23:55:31Z,yk3unkzo,serial-reaction-time,1,P,2,1,36,4123,0,1,410.0999999996274,441,H
2023-04-27T23:55:32Z,yk3unkzo,serial-reaction-time,1,R,2,1,37,4123,0,4,345.7999999988824,414,T
2023-04-27T23:55:32Z,yk3unkzo,serial-reaction-time,1,P,2,1,38,4123,0,2,369.19999999925494,142,H
2023-04-27T23:55:32Z,yk3unkzo,serial-reaction-time,1,R,2,1,39,4123,0,1,302.7000000011176,421,H
2023-04-27T23:55:33Z,yk3unkzo,serial-reaction-time,NA,P,2,1,40,4123,0,3,362.1000000014901,213,H
2023-04-27T23:55:33Z,yk3unkzo,serial-reaction-time,1,P,2,0,40,4123,0,3,661.7000000011176,213,H
2023-04-27T23:55:34Z,yk3unkzo,serial-reaction-time,1,R,2,1,41,4123,0,2,555,132,H
2023-04-27T23:55:34Z,yk3unkzo,serial-reaction-time,1,P,2,1,42,4123,0,4,350.2000000011176,324,H
2023-04-27T23:55:35Z,yk3unkzo,serial-reaction-time,1,R,2,1,43,4123,0,3,404.4000000003726,243,H
2023-04-27T23:55:35Z,yk3unkzo,serial-reaction-time,1,P,2,1,44,4123,0,1,358.1000000014901,431,H
2023-04-27T23:55:36Z,yk3unkzo,serial-reaction-time,1,R,2,1,45,4123,0,4,361,314,H
2023-04-27T23:55:36Z,yk3unkzo,serial-reaction-time,1,P,2,1,46,4123,0,2,329.30000000074506,142,H
2023-04-27T23:55:37Z,yk3unkzo,serial-reaction-time,1,R,2,1,47,4123,0,3,530.5999999996275,423,L
2023-04-27T23:55:38Z,yk3unkzo,serial-reaction-time,1,P,2,1,48,4123,0,3,324.2000000011176,233,H
2023-04-27T23:55:38Z,yk3unkzo,serial-reaction-time,1,R,2,1,49,4123,0,2,415.5,332,L
2023-04-27T23:55:39Z,yk3unkzo,serial-reaction-time,1,P,2,1,50,4123,0,4,371.5999999996274,324,H
2023-04-27T23:55:39Z,yk3unkzo,serial-reaction-time,1,R,2,1,51,4123,0,4,343,244,L
2023-04-27T23:55:39Z,yk3unkzo,serial-reaction-time,1,P,2,1,52,4123,0,1,330.80000000074506,441,H
2023-04-27T23:55:40Z,yk3unkzo,serial-reaction-time,NA,R,2,1,53,4123,0,2,400,412,L
2023-04-27T23:55:40Z,yk3unkzo,serial-reaction-time,1,R,2,0,53,4123,0,2,628.4000000003725,412,L
2023-04-27T23:55:41Z,yk3unkzo,serial-reaction-time,1,P,2,1,54,4123,0,2,330,122,H
2023-04-27T23:55:41Z,yk3unkzo,serial-reaction-time,1,R,2,1,55,4123,0,2,281.7000000011176,222,R
2023-04-27T23:55:42Z,yk3unkzo,serial-reaction-time,1,P,2,1,56,4123,0,3,339.69999999925494,223,H
2023-04-27T23:55:42Z,yk3unkzo,serial-reaction-time,1,R,2,1,57,4123,0,2,353.40000000037253,232,T
2023-04-27T23:55:43Z,yk3unkzo,serial-reaction-time,1,P,2,1,58,4123,0,4,344.40000000037253,324,H
2023-04-27T23:55:43Z,yk3unkzo,serial-reaction-time,1,R,2,1,59,4123,0,3,381.30000000074506,243,H
2023-04-27T23:55:44Z,yk3unkzo,serial-reaction-time,1,P,2,1,60,4123,0,1,338.09999999962747,431,H
2023-04-27T23:55:44Z,yk3unkzo,serial-reaction-time,NA,R,2,1,61,4123,0,1,379.0999999996274,311,L
2023-04-27T23:55:44Z,yk3unkzo,serial-reaction-time,1,R,2,0,61,4123,0,1,393.19999999925494,311,L
2023-04-27T23:55:45Z,yk3unkzo,serial-reaction-time,1,P,2,1,62,4123,0,2,524,112,H
2023-04-27T23:55:45Z,yk3unkzo,serial-reaction-time,1,R,2,1,63,4123,0,4,374.4000000003726,124,L
2023-04-27T23:55:46Z,yk3unkzo,serial-reaction-time,1,P,2,1,64,4123,0,3,365.2000000011176,243,H
2023-04-27T23:55:46Z,yk3unkzo,serial-reaction-time,1,R,2,1,65,4123,0,1,323.7000000011176,431,H
2023-04-27T23:55:47Z,yk3unkzo,serial-reaction-time,1,P,2,1,66,4123,0,4,391.5999999996274,314,H
2023-04-27T23:55:47Z,yk3unkzo,serial-reaction-time,1,R,2,1,67,4123,0,4,318.5,144,L
2023-04-27T23:55:48Z,yk3unkzo,serial-reaction-time,1,P,2,1,68,4123,0,1,313.59999999962747,441,H
2023-04-27T23:55:48Z,yk3unkzo,serial-reaction-time,NA,R,2,1,69,4123,0,3,338.7999999988824,413,L
2023-04-27T23:55:48Z,yk3unkzo,serial-reaction-time,1,R,2,0,69,4123,0,3,727.6999999992549,413,L
2023-04-27T23:55:49Z,yk3unkzo,serial-reaction-time,1,P,2,1,70,4123,0,2,434.4000000003726,132,H
2023-04-27T23:55:50Z,yk3unkzo,serial-reaction-time,1,R,2,1,71,4123,0,4,363,324,H
2023-04-27T23:55:50Z,yk3unkzo,serial-reaction-time,1,P,2,1,72,4123,0,3,388.3999999985099,243,H
2023-04-27T23:55:51Z,yk3unkzo,serial-reaction-time,1,R,2,1,73,4123,0,1,334.40000000037253,431,H
2023-04-27T23:55:51Z,yk3unkzo,serial-reaction-time,1,P,2,1,74,4123,0,4,330.09999999962747,314,H
2023-04-27T23:55:51Z,yk3unkzo,serial-reaction-time,1,R,2,1,75,4123,0,4,351.7999999988824,144,L
2023-04-27T23:55:52Z,yk3unkzo,serial-reaction-time,1,P,2,1,76,4123,0,1,388.0999999996274,441,H
2023-04-27T23:55:53Z,yk3unkzo,serial-reaction-time,1,R,2,1,77,4123,0,3,528.4000000003725,413,L
2023-04-27T23:55:53Z,yk3unkzo,serial-reaction-time,1,P,2,1,78,4123,0,2,387.5,132,H
2023-04-27T23:55:54Z,yk3unkzo,serial-reaction-time,1,R,2,1,79,4123,0,2,245.80000000074503,322,L
2023-04-27T23:55:54Z,yk3unkzo,serial-reaction-time,1,P,2,1,80,4123,0,3,421.2000000011176,223,H
2023-04-27T23:55:59Z,yk3unkzo,html-keyboard-response,NA,NA,NA,NA,NA,NA,NA,NA,NA,NA,NA
2023-04-27T23:56:00Z,yk3unkzo,html-keyboard-response,NA,NA,NA,NA,NA,NA,NA,NA,NA,NA,NA
2023-04-27T23:56:01Z,yk3unkzo,serial-reaction-time,1,R,3,1,1,4123,0,4,438.5999999996274,4,X
2023-04-27T23:56:02Z,yk3unkzo,serial-reaction-time,1,P,3,1,2,4123,0,4,223,44,X
2023-04-27T23:56:02Z,yk3unkzo,serial-reaction-time,1,R,3,1,3,4123,0,2,308,442,L
2023-04-27T23:56:03Z,yk3unkzo,serial-reaction-time,1,P,3,1,4,4123,0,1,371.2999999988824,421,H
2023-04-27T23:56:03Z,yk3unkzo,serial-reaction-time,1,R,3,1,5,4123,0,3,415,213,H
2023-04-27T23:56:04Z,yk3unkzo,serial-reaction-time,1,P,3,1,6,4123,0,2,424.5,132,H
2023-04-27T23:56:04Z,yk3unkzo,serial-reaction-time,1,R,3,1,7,4123,0,2,276.09999999962747,322,L
2023-04-27T23:56:04Z,yk3unkzo,serial-reaction-time,1,P,3,1,8,4123,0,3,323.69999999925494,223,H
2023-04-27T23:56:05Z,yk3unkzo,serial-reaction-time,1,R,3,1,9,4123,0,4,338.90000000037253,234,L
2023-04-27T23:56:05Z,yk3unkzo,serial-reaction-time,1,P,3,1,10,4123,0,4,266.2999999988824,344,H
2023-04-27T23:56:06Z,yk3unkzo,serial-reaction-time,1,R,3,1,11,4123,0,1,353.09999999962747,441,H
2023-04-27T23:56:06Z,yk3unkzo,serial-reaction-time,1,P,3,1,12,4123,0,1,270.69999999925494,411,H
2023-04-27T23:56:07Z,yk3unkzo,serial-reaction-time,1,R,3,1,13,4123,0,4,354.7000000011176,114,L
2023-04-27T23:56:07Z,yk3unkzo,serial-reaction-time,1,P,3,1,14,4123,0,2,496.0999999996274,142,H
2023-04-27T23:56:08Z,yk3unkzo,serial-reaction-time,1,R,3,1,15,4123,0,3,378.1000000014901,423,L
2023-04-27T23:56:08Z,yk3unkzo,serial-reaction-time,1,P,3,1,16,4123,0,3,360.4000000003726,233,H
2023-04-27T23:56:09Z,yk3unkzo,serial-reaction-time,1,R,3,1,17,4123,0,1,384.5999999996274,331,L
2023-04-27T23:56:09Z,yk3unkzo,serial-reaction-time,1,P,3,1,18,4123,0,4,348.7999999988824,314,H
2023-04-27T23:56:10Z,yk3unkzo,serial-reaction-time,1,R,3,1,19,4123,0,4,445.9000000003726,144,L
2023-04-27T23:56:10Z,yk3unkzo,serial-reaction-time,1,P,3,1,20,4123,0,1,315.2999999988824,441,H
2023-04-27T23:56:11Z,yk3unkzo,serial-reaction-time,1,R,3,1,21,4123,0,3,352.40000000037253,413,L
2023-04-27T23:56:11Z,yk3unkzo,serial-reaction-time,1,P,3,1,22,4123,0,2,366.5,132,H
2023-04-27T23:56:12Z,yk3unkzo,serial-reaction-time,1,R,3,1,23,4123,0,2,278.69999999925494,322,L
2023-04-27T23:56:12Z,yk3unkzo,serial-reaction-time,NA,P,3,1,24,4123,0,3,305,223,H
2023-04-27T23:56:13Z,yk3unkzo,serial-reaction-time,1,P,3,0,24,4123,0,3,655.3000000007451,223,H
2023-04-27T23:56:13Z,yk3unkzo,serial-reaction-time,1,R,3,1,25,4123,0,4,366.5,234,L
2023-04-27T23:56:13Z,yk3unkzo,serial-reaction-time,1,P,3,1,26,4123,0,4,290.2000000011176,344,H
2023-04-27T23:56:14Z,yk3unkzo,serial-reaction-time,NA,R,3,1,27,4123,0,2,253.59999999962747,442,L
2023-04-27T23:56:14Z,yk3unkzo,serial-reaction-time,1,R,3,0,27,4123,0,2,585.9999999981374,442,L
2023-04-27T23:56:15Z,yk3unkzo,serial-reaction-time,1,P,3,1,28,4123,0,1,413.7000000011176,421,H
2023-04-27T23:56:15Z,yk3unkzo,serial-reaction-time,1,R,3,1,29,4123,0,4,362.5999999996274,214,L
2023-04-27T23:56:16Z,yk3unkzo,serial-reaction-time,1,P,3,1,30,4123,0,2,391.0999999996274,142,H
2023-04-27T23:56:16Z,yk3unkzo,serial-reaction-time,1,R,3,1,31,4123,0,2,313.69999999925494,422,L
2023-04-27T23:56:17Z,yk3unkzo,serial-reaction-time,1,P,3,1,32,4123,0,3,435,223,H
2023-04-27T23:56:17Z,yk3unkzo,serial-reaction-time,1,R,3,1,33,4123,0,3,293.5,233,H
2023-04-27T23:56:18Z,yk3unkzo,serial-reaction-time,1,P,3,1,34,4123,0,4,328.3999999985099,334,H
2023-04-27T23:56:18Z,yk3unkzo,serial-reaction-time,NA,R,3,1,35,4123,0,2,325,342,L
2023-04-27T23:56:19Z,yk3unkzo,serial-reaction-time,1,R,3,0,35,4123,0,2,811.4000000003725,342,L
2023-04-27T23:56:19Z,yk3unkzo,serial-reaction-time,1,P,3,1,36,4123,0,1,607.5999999996275,421,H
2023-04-27T23:56:20Z,yk3unkzo,serial-reaction-time,1,R,3,1,37,4123,0,2,433,212,T
2023-04-27T23:56:20Z,yk3unkzo,serial-reaction-time,1,P,3,1,38,4123,0,2,305.7999999988824,122,H
2023-04-27T23:56:21Z,yk3unkzo,serial-reaction-time,1,R,3,1,39,4123,0,4,378.7999999988824,224,L
2023-04-27T23:56:21Z,yk3unkzo,serial-reaction-time,1,P,3,1,40,4123,0,3,461.7000000011176,243,H
2023-04-27T23:56:22Z,yk3unkzo,serial-reaction-time,1,R,3,1,41,4123,0,3,289.40000000037253,433,L
2023-04-27T23:56:22Z,yk3unkzo,serial-reaction-time,1,P,3,1,42,4123,0,4,418.9000000003726,334,H
2023-04-27T23:56:23Z,yk3unkzo,serial-reaction-time,1,R,3,1,43,4123,0,4,307.3999999985099,344,H
2023-04-27T23:56:23Z,yk3unkzo,serial-reaction-time,1,P,3,1,44,4123,0,1,383.8999999985099,441,H
2023-04-27T23:56:24Z,yk3unkzo,serial-reaction-time,1,R,3,1,45,4123,0,2,418.19999999925494,412,L
2023-04-27T23:56:24Z,yk3unkzo,serial-reaction-time,1,P,3,1,46,4123,0,2,315.59999999962747,122,H
2023-04-27T23:56:25Z,yk3unkzo,serial-reaction-time,1,R,3,1,47,4123,0,4,366.30000000074506,224,L
2023-04-27T23:56:25Z,yk3unkzo,serial-reaction-time,1,P,3,1,48,4123,0,3,357.09999999962747,243,H
2023-04-27T23:56:26Z,yk3unkzo,serial-reaction-time,1,R,3,1,49,4123,0,3,317.7999999988824,433,L
2023-04-27T23:56:26Z,yk3unkzo,serial-reaction-time,1,P,3,1,50,4123,0,4,373.9000000003726,334,H
2023-04-27T23:56:27Z,yk3unkzo,serial-reaction-time,1,R,3,1,51,4123,0,3,349,343,T
2023-04-27T23:56:27Z,yk3unkzo,serial-reaction-time,1,P,3,1,52,4123,0,1,411.5999999996274,431,H
2023-04-27T23:56:28Z,yk3unkzo,serial-reaction-time,NA,R,3,1,53,4123,0,3,355.7000000011176,313,T
2023-04-27T23:56:28Z,yk3unkzo,serial-reaction-time,1,R,3,0,53,4123,0,3,671.6000000014901,313,T
2023-04-27T23:56:29Z,yk3unkzo,serial-reaction-time,1,P,3,1,54,4123,0,2,497.69999999925494,132,H
2023-04-27T23:56:29Z,yk3unkzo,serial-reaction-time,1,R,3,1,55,4123,0,4,354.19999999925494,324,H
2023-04-27T23:56:30Z,yk3unkzo,serial-reaction-time,1,P,3,1,56,4123,0,3,313.09999999962747,243,H
2023-04-27T23:56:30Z,yk3unkzo,serial-reaction-time,1,R,3,1,57,4123,0,3,339.90000000037253,433,L
2023-04-27T23:56:31Z,yk3unkzo,serial-reaction-time,1,P,3,1,58,4123,0,4,325.8999999985099,334,H
2023-04-27T23:56:31Z,yk3unkzo,serial-reaction-time,NA,R,3,1,59,4123,0,2,357.59999999962747,342,L
2023-04-27T23:56:31Z,yk3unkzo,serial-reaction-time,1,R,3,0,59,4123,0,2,690.7999999988824,342,L
2023-04-27T23:56:32Z,yk3unkzo,serial-reaction-time,1,P,3,1,60,4123,0,1,365.30000000074506,421,H
2023-04-27T23:56:32Z,yk3unkzo,serial-reaction-time,1,R,3,1,61,4123,0,3,381.9000000003726,213,H
2023-04-27T23:56:33Z,yk3unkzo,serial-reaction-time,1,P,3,1,62,4123,0,2,338.30000000074506,132,H
2023-04-27T23:56:34Z,yk3unkzo,serial-reaction-time,1,R,3,1,63,4123,0,3,475.9000000003726,323,T
2023-04-27T23:56:34Z,yk3unkzo,serial-reaction-time,1,P,3,1,64,4123,0,3,375.5999999996274,233,H
2023-04-27T23:56:34Z,yk3unkzo,serial-reaction-time,1,R,3,1,65,4123,0,2,321.80000000074506,332,L
2023-04-27T23:56:35Z,yk3unkzo,serial-reaction-time,1,P,3,1,66,4123,0,4,509.5999999996274,324,H
2023-04-27T23:56:36Z,yk3unkzo,serial-reaction-time,1,R,3,1,67,4123,0,1,457.19999999925494,241,L
2023-04-27T23:56:36Z,yk3unkzo,serial-reaction-time,1,P,3,1,68,4123,0,1,349.5,411,H
2023-04-27T23:56:37Z,yk3unkzo,serial-reaction-time,1,R,3,1,69,4123,0,4,359.7999999988824,114,L
2023-04-27T23:56:37Z,yk3unkzo,serial-reaction-time,1,P,3,1,70,4123,0,2,479.5999999996274,142,H
2023-04-27T23:56:38Z,yk3unkzo,serial-reaction-time,1,R,3,1,71,4123,0,4,503.2000000011176,424,T
2023-04-27T23:56:39Z,yk3unkzo,serial-reaction-time,1,P,3,1,72,4123,0,3,768,243,H
2023-04-27T23:56:39Z,yk3unkzo,serial-reaction-time,1,R,3,1,73,4123,0,1,337.6000000014901,431,H
2023-04-27T23:56:40Z,yk3unkzo,serial-reaction-time,1,P,3,1,74,4123,0,4,329.69999999925494,314,H
2023-04-27T23:56:40Z,yk3unkzo,serial-reaction-time,1,R,3,1,75,4123,0,4,363.7999999988824,144,L
2023-04-27T23:56:41Z,yk3unkzo,serial-reaction-time,1,P,3,1,76,4123,0,1,420.69999999925494,441,H
2023-04-27T23:56:41Z,yk3unkzo,serial-reaction-time,1,R,3,1,77,4123,0,3,393.4000000003726,413,L
2023-04-27T23:56:42Z,yk3unkzo,serial-reaction-time,1,P,3,1,78,4123,0,2,362.5,132,H
2023-04-27T23:56:42Z,yk3unkzo,serial-reaction-time,1,R,3,1,79,4123,0,4,326.80000000074506,324,H
2023-04-27T23:56:43Z,yk3unkzo,serial-reaction-time,1,P,3,1,80,4123,0,3,363.3999999985099,243,H
2023-04-27T23:56:48Z,yk3unkzo,html-keyboard-response,NA,NA,NA,NA,NA,NA,NA,NA,NA,NA,NA
2023-04-27T23:56:48Z,yk3unkzo,html-keyboard-response,NA,NA,NA,NA,NA,NA,NA,NA,NA,NA,NA
2023-04-27T23:56:50Z,yk3unkzo,serial-reaction-time,1,R,4,1,1,4123,0,3,397,3,X
2023-04-27T23:56:50Z,yk3unkzo,serial-reaction-time,1,P,4,1,2,4123,0,4,308.30000000074506,34,X
2023-04-27T23:56:50Z,yk3unkzo,serial-reaction-time,1,R,4,1,3,4123,0,4,232.10000000149012,344,H
2023-04-27T23:56:51Z,yk3unkzo,serial-reaction-time,1,P,4,1,4,4123,0,1,288.6000000014901,441,H
2023-04-27T23:56:51Z,yk3unkzo,serial-reaction-time,1,R,4,1,5,4123,0,3,340.30000000074506,413,L
2023-04-27T23:56:52Z,yk3unkzo,serial-reaction-time,1,P,4,1,6,4123,0,2,412.5,132,H
2023-04-27T23:56:52Z,yk3unkzo,serial-reaction-time,1,R,4,1,7,4123,0,2,259.80000000074506,322,L
2023-04-27T23:56:53Z,yk3unkzo,serial-reaction-time,1,P,4,1,8,4123,0,3,277.19999999925494,223,H
2023-04-27T23:56:53Z,yk3unkzo,serial-reaction-time,1,R,4,1,9,4123,0,2,274.80000000074506,232,T
2023-04-27T23:56:54Z,yk3unkzo,serial-reaction-time,1,P,4,1,10,4123,0,4,321,324,H
2023-04-27T23:56:54Z,yk3unkzo,serial-reaction-time,1,R,4,1,11,4123,0,2,299.2000000011176,242,T
2023-04-27T23:56:55Z,yk3unkzo,serial-reaction-time,1,P,4,1,12,4123,0,1,356.40000000037253,421,H
2023-04-27T23:56:55Z,yk3unkzo,serial-reaction-time,1,R,4,1,13,4123,0,4,351.69999999925494,214,L
2023-04-27T23:56:55Z,yk3unkzo,serial-reaction-time,1,P,4,1,14,4123,0,2,332.69999999925494,142,H
2023-04-27T23:56:56Z,yk3unkzo,serial-reaction-time,1,R,4,1,15,4123,0,3,355.30000000074506,423,L
2023-04-27T23:56:56Z,yk3unkzo,serial-reaction-time,1,P,4,1,16,4123,0,3,339.40000000037253,233,H
2023-04-27T23:56:57Z,yk3unkzo,serial-reaction-time,1,R,4,1,17,4123,0,4,283.80000000074506,334,H
2023-04-27T23:56:57Z,yk3unkzo,serial-reaction-time,1,P,4,1,18,4123,0,4,330.7000000011176,344,H
2023-04-27T23:56:58Z,yk3unkzo,serial-reaction-time,1,R,4,1,19,4123,0,3,372.80000000074506,443,L
2023-04-27T23:56:58Z,yk3unkzo,serial-reaction-time,1,P,4,1,20,4123,0,1,317.59999999962747,431,H
2023-04-27T23:56:59Z,yk3unkzo,serial-reaction-time,1,R,4,1,21,4123,0,4,296.59999999962747,314,H
2023-04-27T23:56:59Z,yk3unkzo,serial-reaction-time,1,P,4,1,22,4123,0,2,329.30000000074506,142,H
2023-04-27T23:57:00Z,yk3unkzo,serial-reaction-time,1,R,4,1,23,4123,0,1,325.5,421,H
2023-04-27T23:57:00Z,yk3unkzo,serial-reaction-time,NA,P,4,1,24,4123,0,3,340.40000000037253,213,H
2023-04-27T23:57:00Z,yk3unkzo,serial-reaction-time,1,P,4,0,24,4123,0,3,460.2000000011176,213,H
2023-04-27T23:57:01Z,yk3unkzo,serial-reaction-time,1,R,4,1,25,4123,0,1,518,131,T
2023-04-27T23:57:01Z,yk3unkzo,serial-reaction-time,1,P,4,1,26,4123,0,4,323.5,314,H
2023-04-27T23:57:02Z,yk3unkzo,serial-reaction-time,1,R,4,1,27,4123,0,1,455,141,T
2023-04-27T23:57:02Z,yk3unkzo,serial-reaction-time,1,P,4,1,28,4123,0,1,297.80000000074506,411,H
2023-04-27T23:57:03Z,yk3unkzo,serial-reaction-time,1,R,4,1,29,4123,0,1,276.90000000037253,111,R
2023-04-27T23:57:03Z,yk3unkzo,serial-reaction-time,1,P,4,1,30,4123,0,2,407.6000000014901,112,H
2023-04-27T23:57:04Z,yk3unkzo,serial-reaction-time,1,R,4,1,31,4123,0,1,459.7000000011176,121,T
2023-04-27T23:57:04Z,yk3unkzo,serial-reaction-time,1,P,4,1,32,4123,0,3,414.0999999996274,213,H
2023-04-27T23:57:05Z,yk3unkzo,serial-reaction-time,1,R,4,1,33,4123,0,3,323.59999999962747,133,L
2023-04-27T23:57:05Z,yk3unkzo,serial-reaction-time,1,P,4,1,34,4123,0,4,312.3999999985099,334,H
2023-04-27T23:57:06Z,yk3unkzo,serial-reaction-time,NA,R,4,1,35,4123,0,2,369.9000000003726,342,L
2023-04-27T23:57:06Z,yk3unkzo,serial-reaction-time,1,R,4,0,35,4123,0,2,393.5999999996274,342,L
2023-04-27T23:57:06Z,yk3unkzo,serial-reaction-time,1,P,4,1,36,4123,0,1,347,421,H
2023-04-27T23:57:07Z,yk3unkzo,serial-reaction-time,1,R,4,1,37,4123,0,3,540.6999999992549,213,H
2023-04-27T23:57:08Z,yk3unkzo,serial-reaction-time,1,P,4,1,38,4123,0,2,491.7000000011176,132,H
2023-04-27T23:57:08Z,yk3unkzo,serial-reaction-time,1,R,4,1,39,4123,0,2,367.5999999996274,322,L
2023-04-27T23:57:09Z,yk3unkzo,serial-reaction-time,1,P,4,1,40,4123,0,3,522.9000000003725,223,H
2023-04-27T23:57:09Z,yk3unkzo,serial-reaction-time,1,R,4,1,41,4123,0,4,315,234,L
2023-04-27T23:57:10Z,yk3unkzo,serial-reaction-time,1,P,4,1,42,4123,0,4,337.59999999962747,344,H
2023-04-27T23:57:10Z,yk3unkzo,serial-reaction-time,1,R,4,1,43,4123,0,1,375.80000000074506,441,H
2023-04-27T23:57:11Z,yk3unkzo,serial-reaction-time,1,P,4,1,44,4123,0,1,262.59999999962747,411,H
2023-04-27T23:57:11Z,yk3unkzo,serial-reaction-time,NA,R,4,1,45,4123,0,3,363.6000000014901,113,L
2023-04-27T23:57:11Z,yk3unkzo,serial-reaction-time,1,R,4,0,45,4123,0,3,684.7000000029802,113,L
2023-04-27T23:57:12Z,yk3unkzo,serial-reaction-time,1,P,4,1,46,4123,0,2,434.1000000014901,132,H
2023-04-27T23:57:13Z,yk3unkzo,serial-reaction-time,1,R,4,1,47,4123,0,4,385.9000000003726,324,H
2023-04-27T23:57:13Z,yk3unkzo,serial-reaction-time,1,P,4,1,48,4123,0,3,342.90000000037253,243,H
2023-04-27T23:57:13Z,yk3unkzo,serial-reaction-time,1,R,4,1,49,4123,0,1,327.80000000074506,431,H
2023-04-27T23:57:14Z,yk3unkzo,serial-reaction-time,1,P,4,1,50,4123,0,4,386.69999999925494,314,H
2023-04-27T23:57:14Z,yk3unkzo,serial-reaction-time,1,R,4,1,51,4123,0,4,297.30000000074506,144,L
2023-04-27T23:57:15Z,yk3unkzo,serial-reaction-time,1,P,4,1,52,4123,0,1,404.2000000011176,441,H
2023-04-27T23:57:16Z,yk3unkzo,serial-reaction-time,1,R,4,1,53,4123,0,3,451.2000000011176,413,L
2023-04-27T23:57:16Z,yk3unkzo,serial-reaction-time,1,P,4,1,54,4123,0,2,355.19999999925494,132,H
2023-04-27T23:57:16Z,yk3unkzo,serial-reaction-time,1,R,4,1,55,4123,0,1,343,321,L
2023-04-27T23:57:17Z,yk3unkzo,serial-reaction-time,NA,P,4,1,56,4123,0,3,317.80000000074506,213,H
2023-04-27T23:57:17Z,yk3unkzo,serial-reaction-time,1,P,4,0,56,4123,0,3,640.7000000011176,213,H
2023-04-27T23:57:18Z,yk3unkzo,serial-reaction-time,1,R,4,1,57,4123,0,2,496.5999999996274,132,H
2023-04-27T23:57:18Z,yk3unkzo,serial-reaction-time,1,P,4,1,58,4123,0,4,374.9000000003726,324,H
2023-04-27T23:57:19Z,yk3unkzo,serial-reaction-time,1,R,4,1,59,4123,0,2,437.2000000011176,242,T
2023-04-27T23:57:19Z,yk3unkzo,serial-reaction-time,1,P,4,1,60,4123,0,1,395.80000000074506,421,H
2023-04-27T23:57:20Z,yk3unkzo,serial-reaction-time,1,R,4,1,61,4123,0,4,377.5999999996274,214,L
2023-04-27T23:57:20Z,yk3unkzo,serial-reaction-time,1,P,4,1,62,4123,0,2,338.59999999962747,142,H
2023-04-27T23:57:21Z,yk3unkzo,serial-reaction-time,1,R,4,1,63,4123,0,2,298.7999999988824,422,L
2023-04-27T23:57:21Z,yk3unkzo,serial-reaction-time,1,P,4,1,64,4123,0,3,455.5999999996274,223,H
2023-04-27T23:57:22Z,yk3unkzo,serial-reaction-time,NA,R,4,1,65,4123,0,1,327.80000000074506,231,L
2023-04-27T23:57:22Z,yk3unkzo,serial-reaction-time,1,R,4,0,65,4123,0,1,574,231,L
2023-04-27T23:57:23Z,yk3unkzo,serial-reaction-time,1,P,4,1,66,4123,0,4,405.2000000011176,314,H
2023-04-27T23:57:23Z,yk3unkzo,serial-reaction-time,1,R,4,1,67,4123,0,1,397.2000000011176,141,T
2023-04-27T23:57:24Z,yk3unkzo,serial-reaction-time,1,P,4,1,68,4123,0,1,308.40000000037253,411,H
2023-04-27T23:57:24Z,yk3unkzo,serial-reaction-time,1,R,4,1,69,4123,0,4,333.2999999988824,114,L
2023-04-27T23:57:25Z,yk3unkzo,serial-reaction-time,NA,P,4,1,70,4123,0,2,366.19999999925494,142,H
2023-04-27T23:57:25Z,yk3unkzo,serial-reaction-time,1,P,4,0,70,4123,0,2,685,142,H
2023-04-27T23:57:25Z,yk3unkzo,serial-reaction-time,1,R,4,1,71,4123,0,2,326.80000000074506,422,L
2023-04-27T23:57:26Z,yk3unkzo,serial-reaction-time,1,P,4,1,72,4123,0,3,384.19999999925494,223,H
2023-04-27T23:57:26Z,yk3unkzo,serial-reaction-time,1,R,4,1,73,4123,0,3,323,233,H
2023-04-27T23:57:27Z,yk3unkzo,serial-reaction-time,1,P,4,1,74,4123,0,4,347.40000000037253,334,H
2023-04-27T23:57:27Z,yk3unkzo,serial-reaction-time,1,R,4,1,75,4123,0,1,339.69999999925494,341,L
2023-04-27T23:57:28Z,yk3unkzo,serial-reaction-time,1,P,4,1,76,4123,0,1,251.90000000037253,411,H
2023-04-27T23:57:28Z,yk3unkzo,serial-reaction-time,1,R,4,1,77,4123,0,1,283.5,111,R
2023-04-27T23:57:29Z,yk3unkzo,serial-reaction-time,NA,P,4,1,78,4123,0,2,420.19999999925494,112,H
2023-04-27T23:57:29Z,yk3unkzo,serial-reaction-time,1,P,4,0,78,4123,0,2,571.6999999992549,112,H
2023-04-27T23:57:30Z,yk3unkzo,serial-reaction-time,1,R,4,1,79,4123,0,4,491,124,L
2023-04-27T23:57:30Z,yk3unkzo,serial-reaction-time,1,P,4,1,80,4123,0,3,433.69999999925494,243,H
2023-04-27T23:57:35Z,yk3unkzo,html-keyboard-response,NA,NA,NA,NA,NA,NA,NA,NA,NA,NA,NA
2023-04-27T23:57:35Z,yk3unkzo,html-keyboard-response,NA,NA,NA,NA,NA,NA,NA,NA,NA,NA,NA
2023-04-27T23:57:37Z,yk3unkzo,serial-reaction-time,1,R,5,1,1,4123,0,4,440.3999999985099,4,X
2023-04-27T23:57:37Z,yk3unkzo,serial-reaction-time,1,P,5,1,2,4123,0,4,215.10000000149012,44,X
2023-04-27T23:57:38Z,yk3unkzo,serial-reaction-time,NA,R,5,1,3,4123,0,2,181.90000000037253,442,L
2023-04-27T23:57:38Z,yk3unkzo,serial-reaction-time,1,R,5,0,3,4123,0,2,336.90000000037253,442,L
2023-04-27T23:57:38Z,yk3unkzo,serial-reaction-time,1,P,5,1,4,4123,0,1,523.8999999985099,421,H
2023-04-27T23:57:39Z,yk3unkzo,serial-reaction-time,1,R,5,1,5,4123,0,1,255.40000000037253,211,L
2023-04-27T23:57:39Z,yk3unkzo,serial-reaction-time,NA,P,5,1,6,4123,0,2,338.2000000011176,112,H
2023-04-27T23:57:39Z,yk3unkzo,serial-reaction-time,1,P,5,0,6,4123,0,2,609.6000000014901,112,H
2023-04-27T23:57:40Z,yk3unkzo,serial-reaction-time,NA,R,5,1,7,4123,0,4,342.30000000074506,124,L
2023-04-27T23:57:40Z,yk3unkzo,serial-reaction-time,1,R,5,0,7,4123,0,4,537.1000000014901,124,L
2023-04-27T23:57:41Z,yk3unkzo,serial-reaction-time,1,P,5,1,8,4123,0,3,375,243,H
2023-04-27T23:57:41Z,yk3unkzo,serial-reaction-time,1,R,5,1,9,4123,0,1,293.59999999962747,431,H
2023-04-27T23:57:41Z,yk3unkzo,serial-reaction-time,NA,P,5,1,10,4123,0,4,250,314,H
2023-04-27T23:57:42Z,yk3unkzo,serial-reaction-time,1,P,5,0,10,4123,0,4,562.2000000011176,314,H
2023-04-27T23:57:42Z,yk3unkzo,serial-reaction-time,1,R,5,1,11,4123,0,4,337.80000000074506,144,L
2023-04-27T23:57:43Z,yk3unkzo,serial-reaction-time,1,P,5,1,12,4123,0,1,363.5,441,H
2023-04-27T23:57:43Z,yk3unkzo,serial-reaction-time,NA,R,5,1,13,4123,0,4,370.7000000011176,414,T
2023-04-27T23:57:44Z,yk3unkzo,serial-reaction-time,1,R,5,0,13,4123,0,4,666.6000000014901,414,T
2023-04-27T23:57:44Z,yk3unkzo,serial-reaction-time,1,P,5,1,14,4123,0,2,456.30000000074506,142,H
2023-04-27T23:57:45Z,yk3unkzo,serial-reaction-time,1,R,5,1,15,4123,0,3,384.4000000003726,423,L
2023-04-27T23:57:45Z,yk3unkzo,serial-reaction-time,1,P,5,1,16,4123,0,3,373.5,233,H
2023-04-27T23:57:46Z,yk3unkzo,serial-reaction-time,1,R,5,1,17,4123,0,3,325.7999999988824,333,R
2023-04-27T23:57:46Z,yk3unkzo,serial-reaction-time,1,P,5,1,18,4123,0,4,357.90000000037253,334,H
2023-04-27T23:57:47Z,yk3unkzo,serial-reaction-time,NA,R,5,1,19,4123,0,2,423.5,342,L
2023-04-27T23:57:47Z,yk3unkzo,serial-reaction-time,1,R,5,0,19,4123,0,2,670.9000000003725,342,L
2023-04-27T23:57:47Z,yk3unkzo,serial-reaction-time,1,P,5,1,20,4123,0,1,361.5999999996274,421,H
2023-04-27T23:57:48Z,yk3unkzo,serial-reaction-time,1,R,5,1,21,4123,0,3,400.4000000003726,213,H
2023-04-27T23:57:48Z,yk3unkzo,serial-reaction-time,1,P,5,1,22,4123,0,2,371.9000000003726,132,H
2023-04-27T23:57:49Z,yk3unkzo,serial-reaction-time,1,R,5,1,23,4123,0,2,341,322,L
2023-04-27T23:57:50Z,yk3unkzo,serial-reaction-time,1,P,5,1,24,4123,0,3,526.5999999996275,223,H
2023-04-27T23:57:50Z,yk3unkzo,serial-reaction-time,1,R,5,1,25,4123,0,3,281.5,233,H
2023-04-27T23:57:50Z,yk3unkzo,serial-reaction-time,1,P,5,1,26,4123,0,4,320.80000000074506,334,H
2023-04-27T23:57:51Z,yk3unkzo,serial-reaction-time,1,R,5,1,27,4123,0,3,530.5999999996275,343,T
2023-04-27T23:57:52Z,yk3unkzo,serial-reaction-time,1,P,5,1,28,4123,0,1,361.9000000003726,431,H
2023-04-27T23:57:52Z,yk3unkzo,serial-reaction-time,1,R,5,1,29,4123,0,4,359.5,314,H
2023-04-27T23:57:53Z,yk3unkzo,serial-reaction-time,1,P,5,1,30,4123,0,2,735.6999999992549,142,H
2023-04-27T23:57:54Z,yk3unkzo,serial-reaction-time,1,R,5,1,31,4123,0,4,379.0999999996274,424,T
2023-04-27T23:57:54Z,yk3unkzo,serial-reaction-time,1,P,5,1,32,4123,0,3,518.7000000011176,243,H
2023-04-27T23:57:55Z,yk3unkzo,serial-reaction-time,1,R,5,1,33,4123,0,1,419.5,431,H
2023-04-27T23:57:55Z,yk3unkzo,serial-reaction-time,1,P,5,1,34,4123,0,4,343.30000000074506,314,H
2023-04-27T23:57:56Z,yk3unkzo,serial-reaction-time,1,R,5,1,35,4123,0,1,418.9000000003726,141,T
2023-04-27T23:57:56Z,yk3unkzo,serial-reaction-time,1,P,5,1,36,4123,0,1,404.30000000074506,411,H
2023-04-27T23:57:57Z,yk3unkzo,serial-reaction-time,1,R,5,1,37,4123,0,2,451.80000000074506,112,H
2023-04-27T23:57:57Z,yk3unkzo,serial-reaction-time,1,P,5,1,38,4123,0,2,377.6000000014901,122,H
2023-04-27T23:57:58Z,yk3unkzo,serial-reaction-time,1,R,5,1,39,4123,0,1,419.30000000074506,221,L
2023-04-27T23:57:59Z,yk3unkzo,serial-reaction-time,1,P,5,1,40,4123,0,3,622,213,H
2023-04-27T23:57:59Z,yk3unkzo,serial-reaction-time,1,R,5,1,41,4123,0,3,332,133,L
2023-04-27T23:58:00Z,yk3unkzo,serial-reaction-time,1,P,5,1,42,4123,0,4,345.5,334,H
2023-04-27T23:58:00Z,yk3unkzo,serial-reaction-time,1,R,5,1,43,4123,0,2,399.0999999996274,342,L
2023-04-27T23:58:01Z,yk3unkzo,serial-reaction-time,1,P,5,1,44,4123,0,1,338.90000000037253,421,H
2023-04-27T23:58:01Z,yk3unkzo,serial-reaction-time,1,R,5,1,45,4123,0,1,306.09999999962747,211,L
2023-04-27T23:58:02Z,yk3unkzo,serial-reaction-time,1,P,5,1,46,4123,0,2,387.2000000011176,112,H
2023-04-27T23:58:02Z,yk3unkzo,serial-reaction-time,1,R,5,1,47,4123,0,1,346.30000000074506,121,T
2023-04-27T23:58:03Z,yk3unkzo,serial-reaction-time,1,P,5,1,48,4123,0,3,453.69999999925494,213,H
2023-04-27T23:58:03Z,yk3unkzo,serial-reaction-time,1,R,5,1,49,4123,0,1,385.19999999925494,131,T
2023-04-27T23:58:04Z,yk3unkzo,serial-reaction-time,1,P,5,1,50,4123,0,4,414.7999999988824,314,H
2023-04-27T23:58:04Z,yk3unkzo,serial-reaction-time,1,R,5,1,51,4123,0,4,330.90000000037253,144,L
2023-04-27T23:58:05Z,yk3unkzo,serial-reaction-time,1,P,5,1,52,4123,0,1,342,441,H
2023-04-27T23:58:05Z,yk3unkzo,serial-reaction-time,NA,R,5,1,53,4123,0,2,373.9000000003726,412,L
2023-04-27T23:58:05Z,yk3unkzo,serial-reaction-time,1,R,5,0,53,4123,0,2,653.0000000018626,412,L
2023-04-27T23:58:06Z,yk3unkzo,serial-reaction-time,1,P,5,1,54,4123,0,2,295.69999999925494,122,H
2023-04-27T23:58:06Z,yk3unkzo,serial-reaction-time,1,R,5,1,55,4123,0,2,364.3999999985099,222,R
2023-04-27T23:58:07Z,yk3unkzo,serial-reaction-time,1,P,5,1,56,4123,0,3,422.2999999988824,223,H
2023-04-27T23:58:07Z,yk3unkzo,serial-reaction-time,1,R,5,1,57,4123,0,3,366,233,H
2023-04-27T23:58:08Z,yk3unkzo,serial-reaction-time,1,P,5,1,58,4123,0,4,334.8999999985099,334,H
2023-04-27T23:58:09Z,yk3unkzo,serial-reaction-time,1,R,5,1,59,4123,0,3,492.0999999996274,343,T
2023-04-27T23:58:09Z,yk3unkzo,serial-reaction-time,1,P,5,1,60,4123,0,1,339.3999999985099,431,H
2023-04-27T23:58:10Z,yk3unkzo,serial-reaction-time,1,R,5,1,61,4123,0,3,382.2000000011176,313,T
2023-04-27T23:58:10Z,yk3unkzo,serial-reaction-time,1,P,5,1,62,4123,0,2,383.4000000003726,132,H
2023-04-27T23:58:11Z,yk3unkzo,serial-reaction-time,1,R,5,1,63,4123,0,4,420.3999999985099,324,H
2023-04-27T23:58:11Z,yk3unkzo,serial-reaction-time,1,P,5,1,64,4123,0,3,396.0999999996274,243,H
2023-04-27T23:58:12Z,yk3unkzo,serial-reaction-time,1,R,5,1,65,4123,0,4,372.6000000014901,434,T
2023-04-27T23:58:12Z,yk3unkzo,serial-reaction-time,1,P,5,1,66,4123,0,4,352.30000000074506,344,H
2023-04-27T23:58:13Z,yk3unkzo,serial-reaction-time,1,R,5,1,67,4123,0,2,361.5,442,L
2023-04-27T23:58:13Z,yk3unkzo,serial-reaction-time,1,P,5,1,68,4123,0,1,331.59999999962747,421,H
2023-04-27T23:58:14Z,yk3unkzo,serial-reaction-time,1,R,5,1,69,4123,0,4,354.69999999925494,214,L
2023-04-27T23:58:14Z,yk3unkzo,serial-reaction-time,1,P,5,1,70,4123,0,2,356.90000000037253,142,H
2023-04-27T23:58:14Z,yk3unkzo,serial-reaction-time,1,R,5,1,71,4123,0,2,316.80000000074506,422,L
2023-04-27T23:58:15Z,yk3unkzo,serial-reaction-time,NA,P,5,1,72,4123,0,3,339.5,223,H
2023-04-27T23:58:15Z,yk3unkzo,serial-reaction-time,1,P,5,0,72,4123,0,3,673.7000000011176,223,H
2023-04-27T23:58:16Z,yk3unkzo,serial-reaction-time,1,R,5,1,73,4123,0,2,565.2000000011176,232,T
2023-04-27T23:58:16Z,yk3unkzo,serial-reaction-time,1,P,5,1,74,4123,0,4,348.40000000037253,324,H
2023-04-27T23:58:17Z,yk3unkzo,serial-reaction-time,1,R,5,1,75,4123,0,2,368.8999999985099,242,T
2023-04-27T23:58:18Z,yk3unkzo,serial-reaction-time,1,P,5,1,76,4123,0,1,455.0999999996274,421,H
2023-04-27T23:58:18Z,yk3unkzo,serial-reaction-time,1,R,5,1,77,4123,0,4,373.7999999988824,214,L
2023-04-27T23:58:19Z,yk3unkzo,serial-reaction-time,1,P,5,1,78,4123,0,2,363.80000000074506,142,H
2023-04-27T23:58:19Z,yk3unkzo,serial-reaction-time,1,R,5,1,79,4123,0,3,448.4000000003726,423,L
2023-04-27T23:58:20Z,yk3unkzo,serial-reaction-time,1,P,5,1,80,4123,0,3,357.09999999962747,233,H
2023-04-27T23:58:25Z,yk3unkzo,html-keyboard-response,NA,NA,NA,NA,NA,NA,NA,NA,NA,NA,NA
2023-04-27T23:58:28Z,yk3unkzo,html-keyboard-response,NA,NA,NA,NA,NA,NA,NA,NA,NA,NA,NA
2023-04-27T23:58:29Z,yk3unkzo,fullscreen,NA,NA,NA,NA,NA,NA,NA,NA,NA,NA,NA
2023-04-30T19:07:35Z,ln7kg8ue,fullscreen,NA,NA,NA,NA,NA,NA,NA,NA,NA,NA,NA
2023-04-30T19:07:36Z,ln7kg8ue,html-keyboard-response,NA,NA,NA,NA,NA,NA,NA,NA,NA,NA,NA
2023-04-30T19:07:38Z,ln7kg8ue,serial-reaction-time,1,R,1,1,1,4123,0,3,561.1999999955297,3,X
2023-04-30T19:07:38Z,ln7kg8ue,serial-reaction-time,1,P,1,1,2,4123,0,4,329.29999999701977,34,X
2023-04-30T19:07:38Z,ln7kg8ue,serial-reaction-time,1,R,1,1,3,4123,0,4,358.79999999701977,344,H
2023-04-30T19:07:39Z,ln7kg8ue,serial-reaction-time,1,P,1,1,4,4123,0,1,449,441,H
2023-04-30T19:07:40Z,ln7kg8ue,serial-reaction-time,1,R,1,1,5,4123,0,2,388.69999999552965,412,L
2023-04-30T19:07:40Z,ln7kg8ue,serial-reaction-time,1,P,1,1,6,4123,0,2,206.80000000447035,122,H
2023-04-30T19:07:40Z,ln7kg8ue,serial-reaction-time,1,R,1,1,7,4123,0,2,250.89999999850988,222,R
2023-04-30T19:07:41Z,ln7kg8ue,serial-reaction-time,1,P,1,1,8,4123,0,3,332.19999999552965,223,H
2023-04-30T19:07:41Z,ln7kg8ue,serial-reaction-time,1,R,1,1,9,4123,0,4,312.5,234,L
2023-04-30T19:07:42Z,ln7kg8ue,serial-reaction-time,1,P,1,1,10,4123,0,4,351.79999999701977,344,H
2023-04-30T19:07:42Z,ln7kg8ue,serial-reaction-time,1,R,1,1,11,4123,0,1,372.1000000014901,441,H
2023-04-30T19:07:43Z,ln7kg8ue,serial-reaction-time,1,P,1,1,12,4123,0,1,299.19999999552965,411,H
2023-04-30T19:07:43Z,ln7kg8ue,serial-reaction-time,1,R,1,1,13,4123,0,2,320.70000000298023,112,H
2023-04-30T19:07:43Z,ln7kg8ue,serial-reaction-time,1,P,1,1,14,4123,0,2,289.20000000298023,122,H
2023-04-30T19:07:44Z,ln7kg8ue,serial-reaction-time,1,R,1,1,15,4123,0,2,227.39999999850988,222,R
2023-04-30T19:07:44Z,ln7kg8ue,serial-reaction-time,1,P,1,1,16,4123,0,3,313.20000000298023,223,H
2023-04-30T19:07:45Z,ln7kg8ue,serial-reaction-time,1,R,1,1,17,4123,0,1,348.80000000447035,231,L
2023-04-30T19:07:45Z,ln7kg8ue,serial-reaction-time,1,P,1,1,18,4123,0,4,375.30000000447035,314,H
2023-04-30T19:07:46Z,ln7kg8ue,serial-reaction-time,1,R,1,1,19,4123,0,4,330.69999999552965,144,L
2023-04-30T19:07:46Z,ln7kg8ue,serial-reaction-time,NA,P,1,1,20,4123,0,1,540.2000000029802,441,H
2023-04-30T19:07:47Z,ln7kg8ue,serial-reaction-time,1,P,1,0,20,4123,0,1,965.7999999970198,441,H
2023-04-30T19:07:47Z,ln7kg8ue,serial-reaction-time,1,R,1,1,21,4123,0,3,380.6000000014901,413,L
2023-04-30T19:07:48Z,ln7kg8ue,serial-reaction-time,1,P,1,1,22,4123,0,2,497.5,132,H
2023-04-30T19:07:48Z,ln7kg8ue,serial-reaction-time,1,R,1,1,23,4123,0,4,376.6000000014901,324,H
2023-04-30T19:07:49Z,ln7kg8ue,serial-reaction-time,1,P,1,1,24,4123,0,3,348.30000000447035,243,H
2023-04-30T19:07:49Z,ln7kg8ue,serial-reaction-time,1,R,1,1,25,4123,0,2,362.3999999985099,432,L
2023-04-30T19:07:50Z,ln7kg8ue,serial-reaction-time,1,P,1,1,26,4123,0,4,375.80000000447035,324,H
2023-04-30T19:07:50Z,ln7kg8ue,serial-reaction-time,1,R,1,1,27,4123,0,1,355.20000000298023,241,L
2023-04-30T19:07:51Z,ln7kg8ue,serial-reaction-time,1,P,1,1,28,4123,0,1,319.6000000014901,411,H
2023-04-30T19:07:51Z,ln7kg8ue,serial-reaction-time,1,R,1,1,29,4123,0,3,387.3999999985099,113,L
2023-04-30T19:07:53Z,ln7kg8ue,serial-reaction-time,1,P,1,1,30,4123,0,2,1448.60000000149,132,H
2023-04-30T19:07:54Z,ln7kg8ue,serial-reaction-time,NA,R,1,1,31,4123,0,3,444.59999999403954,323,T
2023-04-30T19:07:54Z,ln7kg8ue,serial-reaction-time,1,R,1,0,31,4123,0,3,536.1999999955297,323,T
2023-04-30T19:07:54Z,ln7kg8ue,serial-reaction-time,1,P,1,1,32,4123,0,3,293.1000000014901,233,H
2023-04-30T19:07:55Z,ln7kg8ue,serial-reaction-time,NA,R,1,1,33,4123,0,2,414.09999999403954,332,L
2023-04-30T19:07:55Z,ln7kg8ue,serial-reaction-time,1,R,1,0,33,4123,0,2,591.5999999940395,332,L
2023-04-30T19:07:55Z,ln7kg8ue,serial-reaction-time,1,P,1,1,34,4123,0,4,348.5,324,H
2023-04-30T19:07:56Z,ln7kg8ue,serial-reaction-time,1,R,1,1,35,4123,0,3,381.3999999985099,243,H
2023-04-30T19:07:56Z,ln7kg8ue,serial-reaction-time,NA,P,1,1,36,4123,0,1,316.79999999701977,431,H
2023-04-30T19:07:57Z,ln7kg8ue,serial-reaction-time,1,P,1,0,36,4123,0,1,665.5,431,H
2023-04-30T19:07:57Z,ln7kg8ue,serial-reaction-time,1,R,1,1,37,4123,0,1,235,311,L
2023-04-30T19:07:57Z,ln7kg8ue,serial-reaction-time,1,P,1,1,38,4123,0,2,365.8999999985099,112,H
2023-04-30T19:07:58Z,ln7kg8ue,serial-reaction-time,1,R,1,1,39,4123,0,2,291.40000000596046,122,H
2023-04-30T19:07:58Z,ln7kg8ue,serial-reaction-time,1,P,1,1,40,4123,0,3,290.79999999701977,223,H
2023-04-30T19:07:59Z,ln7kg8ue,serial-reaction-time,1,R,1,1,41,4123,0,2,372.5,232,T
2023-04-30T19:07:59Z,ln7kg8ue,serial-reaction-time,1,P,1,1,42,4123,0,4,326,324,H
2023-04-30T19:08:00Z,ln7kg8ue,serial-reaction-time,1,R,1,1,43,4123,0,4,342.1000000014901,244,L
2023-04-30T19:08:00Z,ln7kg8ue,serial-reaction-time,NA,P,1,1,44,4123,0,1,303.79999999701977,441,H
2023-04-30T19:08:01Z,ln7kg8ue,serial-reaction-time,NA,P,1,0,44,4123,0,1,1486.7999999970198,441,H
2023-04-30T19:08:02Z,ln7kg8ue,serial-reaction-time,1,P,1,0,44,4123,0,1,1985.1999999955297,441,H
2023-04-30T19:08:02Z,ln7kg8ue,serial-reaction-time,NA,R,1,1,45,4123,0,2,305.1000000014901,412,L
2023-04-30T19:08:02Z,ln7kg8ue,serial-reaction-time,1,R,1,0,45,4123,0,2,447.90000000596046,412,L
2023-04-30T19:08:03Z,ln7kg8ue,serial-reaction-time,1,P,1,1,46,4123,0,2,304.8999999985099,122,H
2023-04-30T19:08:03Z,ln7kg8ue,serial-reaction-time,1,R,1,1,47,4123,0,2,295,222,R
2023-04-30T19:08:04Z,ln7kg8ue,serial-reaction-time,1,P,1,1,48,4123,0,3,292,223,H
2023-04-30T19:08:04Z,ln7kg8ue,serial-reaction-time,1,R,1,1,49,4123,0,3,263.3999999985099,233,H
2023-04-30T19:08:05Z,ln7kg8ue,serial-reaction-time,1,P,1,1,50,4123,0,4,296.6000000014901,334,H
2023-04-30T19:08:05Z,ln7kg8ue,serial-reaction-time,1,R,1,1,51,4123,0,4,305.69999999552965,344,H
2023-04-30T19:08:05Z,ln7kg8ue,serial-reaction-time,NA,P,1,1,52,4123,0,1,293.19999999552965,441,H
2023-04-30T19:08:06Z,ln7kg8ue,serial-reaction-time,1,P,1,0,52,4123,0,1,569.8999999910593,441,H
2023-04-30T19:08:06Z,ln7kg8ue,serial-reaction-time,NA,R,1,1,53,4123,0,2,260,412,L
2023-04-30T19:08:06Z,ln7kg8ue,serial-reaction-time,1,R,1,0,53,4123,0,2,443.1000000014901,412,L
2023-04-30T19:08:07Z,ln7kg8ue,serial-reaction-time,1,P,1,1,54,4123,0,2,244.70000000298023,122,H
2023-04-30T19:08:07Z,ln7kg8ue,serial-reaction-time,1,R,1,1,55,4123,0,2,311.20000000298023,222,R
2023-04-30T19:08:08Z,ln7kg8ue,serial-reaction-time,1,P,1,1,56,4123,0,3,371,223,H
2023-04-30T19:08:08Z,ln7kg8ue,serial-reaction-time,1,R,1,1,57,4123,0,3,292.90000000596046,233,H
2023-04-30T19:08:08Z,ln7kg8ue,serial-reaction-time,1,P,1,1,58,4123,0,4,319.20000000298023,334,H
2023-04-30T19:08:09Z,ln7kg8ue,serial-reaction-time,1,R,1,1,59,4123,0,2,383.3999999985099,342,L
2023-04-30T19:08:09Z,ln7kg8ue,serial-reaction-time,1,P,1,1,60,4123,0,1,263.30000000447035,421,H
2023-04-30T19:08:10Z,ln7kg8ue,serial-reaction-time,1,R,1,1,61,4123,0,3,389.29999999701977,213,H
2023-04-30T19:08:10Z,ln7kg8ue,serial-reaction-time,1,P,1,1,62,4123,0,2,232.69999999552965,132,H
2023-04-30T19:08:11Z,ln7kg8ue,serial-reaction-time,1,R,1,1,63,4123,0,4,332.70000000298023,324,H
2023-04-30T19:08:11Z,ln7kg8ue,serial-reaction-time,NA,P,1,1,64,4123,0,3,271.3999999985099,243,H
2023-04-30T19:08:11Z,ln7kg8ue,serial-reaction-time,1,P,1,0,64,4123,0,3,572.6000000014901,243,H
2023-04-30T19:08:12Z,ln7kg8ue,serial-reaction-time,1,R,1,1,65,4123,0,1,454.30000000447035,431,H
2023-04-30T19:08:12Z,ln7kg8ue,serial-reaction-time,1,P,1,1,66,4123,0,4,373.5,314,H
2023-04-30T19:08:13Z,ln7kg8ue,serial-reaction-time,1,R,1,1,67,4123,0,2,263.3999999985099,142,H
2023-04-30T19:08:13Z,ln7kg8ue,serial-reaction-time,1,P,1,1,68,4123,0,1,402.3999999985099,421,H
2023-04-30T19:08:14Z,ln7kg8ue,serial-reaction-time,1,R,1,1,69,4123,0,1,315.29999999701977,211,L
2023-04-30T19:08:14Z,ln7kg8ue,serial-reaction-time,1,P,1,1,70,4123,0,2,398.20000000298023,112,H
2023-04-30T19:08:15Z,ln7kg8ue,serial-reaction-time,1,R,1,1,71,4123,0,4,390.19999999552965,124,L
2023-04-30T19:08:15Z,ln7kg8ue,serial-reaction-time,1,P,1,1,72,4123,0,3,402.20000000298023,243,H
2023-04-30T19:08:16Z,ln7kg8ue,serial-reaction-time,1,R,1,1,73,4123,0,1,345.8999999985099,431,H
2023-04-30T19:08:16Z,ln7kg8ue,serial-reaction-time,1,P,1,1,74,4123,0,4,342.70000000298023,314,H
2023-04-30T19:08:17Z,ln7kg8ue,serial-reaction-time,NA,R,1,1,75,4123,0,1,278,141,T
2023-04-30T19:08:17Z,ln7kg8ue,serial-reaction-time,1,R,1,0,75,4123,0,1,699.5,141,T
2023-04-30T19:08:18Z,ln7kg8ue,serial-reaction-time,1,P,1,1,76,4123,0,1,312,411,H
2023-04-30T19:08:18Z,ln7kg8ue,serial-reaction-time,NA,R,1,1,77,4123,0,4,354.8999999985099,114,L
2023-04-30T19:08:18Z,ln7kg8ue,serial-reaction-time,1,R,1,0,77,4123,0,4,658.7999999970198,114,L
2023-04-30T19:08:19Z,ln7kg8ue,serial-reaction-time,1,P,1,1,78,4123,0,2,521.3000000044703,142,H
2023-04-30T19:08:19Z,ln7kg8ue,serial-reaction-time,1,R,1,1,79,4123,0,3,259,423,L
2023-04-30T19:08:20Z,ln7kg8ue,serial-reaction-time,1,P,1,1,80,4123,0,3,328.30000000447035,233,H
2023-04-30T19:08:25Z,ln7kg8ue,html-keyboard-response,NA,NA,NA,NA,NA,NA,NA,NA,NA,NA,NA
2023-04-30T19:08:26Z,ln7kg8ue,html-keyboard-response,NA,NA,NA,NA,NA,NA,NA,NA,NA,NA,NA
2023-04-30T19:08:28Z,ln7kg8ue,serial-reaction-time,1,R,2,1,1,4123,0,1,426.1000000014901,1,X
2023-04-30T19:08:28Z,ln7kg8ue,serial-reaction-time,1,P,2,1,2,4123,0,4,353.09999999403954,14,X
2023-04-30T19:08:29Z,ln7kg8ue,serial-reaction-time,1,R,2,1,3,4123,0,3,342.6000000014901,143,L
2023-04-30T19:08:29Z,ln7kg8ue,serial-reaction-time,1,P,2,1,4,4123,0,1,433,431,H
2023-04-30T19:08:30Z,ln7kg8ue,serial-reaction-time,1,R,2,1,5,4123,0,2,373.70000000298023,312,L
2023-04-30T19:08:30Z,ln7kg8ue,serial-reaction-time,1,P,2,1,6,4123,0,2,308.1000000014901,122,H
2023-04-30T19:08:31Z,ln7kg8ue,serial-reaction-time,1,R,2,1,7,4123,0,1,351.5,221,L
2023-04-30T19:08:31Z,ln7kg8ue,serial-reaction-time,NA,P,2,1,8,4123,0,3,488.30000000447035,213,H
2023-04-30T19:08:32Z,ln7kg8ue,serial-reaction-time,1,P,2,0,8,4123,0,3,840.1000000089407,213,H
2023-04-30T19:08:32Z,ln7kg8ue,serial-reaction-time,1,R,2,1,9,4123,0,1,421.20000000298023,131,T
2023-04-30T19:08:33Z,ln7kg8ue,serial-reaction-time,1,P,2,1,10,4123,0,4,383.20000000298023,314,H
2023-04-30T19:08:33Z,ln7kg8ue,serial-reaction-time,1,R,2,1,11,4123,0,4,380.79999999701977,144,L
2023-04-30T19:08:34Z,ln7kg8ue,serial-reaction-time,NA,P,2,1,12,4123,0,1,348.5,441,H
2023-04-30T19:08:34Z,ln7kg8ue,serial-reaction-time,1,P,2,0,12,4123,0,1,472.6000000014901,441,H
2023-04-30T19:08:34Z,ln7kg8ue,serial-reaction-time,1,R,2,1,13,4123,0,1,330.3999999985099,411,H
2023-04-30T19:08:35Z,ln7kg8ue,serial-reaction-time,1,P,2,1,14,4123,0,2,313,112,H
2023-04-30T19:08:35Z,ln7kg8ue,serial-reaction-time,NA,R,2,1,15,4123,0,1,90.5,121,T
2023-04-30T19:08:35Z,ln7kg8ue,serial-reaction-time,NA,R,2,0,15,4123,0,1,505.80000000447035,121,T
2023-04-30T19:08:36Z,ln7kg8ue,serial-reaction-time,1,R,2,0,15,4123,0,1,870.6000000014901,121,T
2023-04-30T19:08:36Z,ln7kg8ue,serial-reaction-time,1,P,2,1,16,4123,0,3,372.8999999985099,213,H
2023-04-30T19:08:37Z,ln7kg8ue,serial-reaction-time,1,R,2,1,17,4123,0,4,281,134,L
2023-04-30T19:08:37Z,ln7kg8ue,serial-reaction-time,1,P,2,1,18,4123,0,4,278.8999999985099,344,H
2023-04-30T19:08:38Z,ln7kg8ue,serial-reaction-time,1,R,2,1,19,4123,0,1,310.30000000447035,441,H
2023-04-30T19:08:38Z,ln7kg8ue,serial-reaction-time,1,P,2,1,20,4123,0,1,377.5,411,H
2023-04-30T19:08:39Z,ln7kg8ue,serial-reaction-time,1,R,2,1,21,4123,0,2,345,112,H
2023-04-30T19:08:39Z,ln7kg8ue,serial-reaction-time,1,P,2,1,22,4123,0,2,315.79999999701977,122,H
2023-04-30T19:08:39Z,ln7kg8ue,serial-reaction-time,1,R,2,1,23,4123,0,2,239.39999999850988,222,R
2023-04-30T19:08:40Z,ln7kg8ue,serial-reaction-time,1,P,2,1,24,4123,0,3,323.29999999701977,223,H
2023-04-30T19:08:40Z,ln7kg8ue,serial-reaction-time,1,R,2,1,25,4123,0,2,495.19999999552965,232,T
2023-04-30T19:08:41Z,ln7kg8ue,serial-reaction-time,1,P,2,1,26,4123,0,4,299.5,324,H
2023-04-30T19:08:41Z,ln7kg8ue,serial-reaction-time,1,R,2,1,27,4123,0,3,427.3999999985099,243,H
2023-04-30T19:08:42Z,ln7kg8ue,serial-reaction-time,1,P,2,1,28,4123,0,1,349.1000000014901,431,H
2023-04-30T19:08:43Z,ln7kg8ue,serial-reaction-time,1,R,2,1,29,4123,0,3,533.5,313,T
2023-04-30T19:08:43Z,ln7kg8ue,serial-reaction-time,1,P,2,1,30,4123,0,2,404.29999999701977,132,H
2023-04-30T19:08:43Z,ln7kg8ue,serial-reaction-time,1,R,2,1,31,4123,0,1,298.5,321,L
2023-04-30T19:08:44Z,ln7kg8ue,serial-reaction-time,1,P,2,1,32,4123,0,3,484.40000000596046,213,H
2023-04-30T19:08:44Z,ln7kg8ue,serial-reaction-time,NA,R,2,1,33,4123,0,3,170.20000000298023,133,L
2023-04-30T19:08:45Z,ln7kg8ue,serial-reaction-time,1,R,2,0,33,4123,0,3,505.5000000074506,133,L
2023-04-30T19:08:45Z,ln7kg8ue,serial-reaction-time,1,P,2,1,34,4123,0,4,388.79999999701977,334,H
2023-04-30T19:08:46Z,ln7kg8ue,serial-reaction-time,NA,R,2,1,35,4123,0,2,294.69999999552965,342,L
2023-04-30T19:08:46Z,ln7kg8ue,serial-reaction-time,1,R,2,0,35,4123,0,2,595.6999999955297,342,L
2023-04-30T19:08:46Z,ln7kg8ue,serial-reaction-time,1,P,2,1,36,4123,0,1,347.8999999985099,421,H
2023-04-30T19:08:47Z,ln7kg8ue,serial-reaction-time,1,R,2,1,37,4123,0,4,501.30000000447035,214,L
2023-04-30T19:08:48Z,ln7kg8ue,serial-reaction-time,1,P,2,1,38,4123,0,2,393,142,H
2023-04-30T19:08:48Z,ln7kg8ue,serial-reaction-time,1,R,2,1,39,4123,0,2,302.1000000014901,422,L
2023-04-30T19:08:48Z,ln7kg8ue,serial-reaction-time,1,P,2,1,40,4123,0,3,365.5,223,H
2023-04-30T19:08:49Z,ln7kg8ue,serial-reaction-time,1,R,2,1,41,4123,0,1,360.5,231,L
2023-04-30T19:08:49Z,ln7kg8ue,serial-reaction-time,1,P,2,1,42,4123,0,4,354.6000000014901,314,H
2023-04-30T19:08:50Z,ln7kg8ue,serial-reaction-time,1,R,2,1,43,4123,0,1,425.19999999552965,141,T
2023-04-30T19:08:50Z,ln7kg8ue,serial-reaction-time,1,P,2,1,44,4123,0,1,297.5,411,H
2023-04-30T19:08:51Z,ln7kg8ue,serial-reaction-time,1,R,2,1,45,4123,0,3,360.1000000014901,113,L
2023-04-30T19:08:51Z,ln7kg8ue,serial-reaction-time,1,P,2,1,46,4123,0,2,324.5,132,H
2023-04-30T19:08:52Z,ln7kg8ue,serial-reaction-time,1,R,2,1,47,4123,0,3,307.20000000298023,323,T
2023-04-30T19:08:52Z,ln7kg8ue,serial-reaction-time,1,P,2,1,48,4123,0,3,303.6000000014901,233,H
2023-04-30T19:08:53Z,ln7kg8ue,serial-reaction-time,1,R,2,1,49,4123,0,4,440.69999999552965,334,H
2023-04-30T19:08:53Z,ln7kg8ue,serial-reaction-time,1,P,2,1,50,4123,0,4,331.5,344,H
2023-04-30T19:08:54Z,ln7kg8ue,serial-reaction-time,NA,R,2,1,51,4123,0,3,429,443,L
2023-04-30T19:08:54Z,ln7kg8ue,serial-reaction-time,1,R,2,0,51,4123,0,3,595.6999999955297,443,L
2023-04-30T19:08:54Z,ln7kg8ue,serial-reaction-time,1,P,2,1,52,4123,0,1,351.30000000447035,431,H
2023-04-30T19:08:55Z,ln7kg8ue,serial-reaction-time,1,R,2,1,53,4123,0,3,320.09999999403954,313,T
2023-04-30T19:08:55Z,ln7kg8ue,serial-reaction-time,1,P,2,1,54,4123,0,2,442.3999999985099,132,H
2023-04-30T19:08:56Z,ln7kg8ue,serial-reaction-time,1,R,2,1,55,4123,0,1,423.59999999403954,321,L
2023-04-30T19:08:57Z,ln7kg8ue,serial-reaction-time,1,P,2,1,56,4123,0,3,347.1000000014901,213,H
2023-04-30T19:08:57Z,ln7kg8ue,serial-reaction-time,NA,R,2,1,57,4123,0,1,389.1000000014901,131,T
2023-04-30T19:08:57Z,ln7kg8ue,serial-reaction-time,1,R,2,0,57,4123,0,1,711.7000000029802,131,T
2023-04-30T19:08:58Z,ln7kg8ue,serial-reaction-time,1,P,2,1,58,4123,0,4,238.20000000298023,314,H
2023-04-30T19:08:58Z,ln7kg8ue,serial-reaction-time,1,R,2,1,59,4123,0,2,433.30000000447035,142,H
2023-04-30T19:08:59Z,ln7kg8ue,serial-reaction-time,NA,P,2,1,60,4123,0,1,257,421,H
2023-04-30T19:08:59Z,ln7kg8ue,serial-reaction-time,1,P,2,0,60,4123,0,1,484.69999999552965,421,H
2023-04-30T19:08:59Z,ln7kg8ue,serial-reaction-time,NA,R,2,1,61,4123,0,4,394.3999999985099,214,L
2023-04-30T19:09:00Z,ln7kg8ue,serial-reaction-time,1,R,2,0,61,4123,0,4,622.6000000014901,214,L
2023-04-30T19:09:00Z,ln7kg8ue,serial-reaction-time,1,P,2,1,62,4123,0,2,331.19999999552965,142,H
2023-04-30T19:09:00Z,ln7kg8ue,serial-reaction-time,NA,R,2,1,63,4123,0,4,254.29999999701977,424,T
2023-04-30T19:09:01Z,ln7kg8ue,serial-reaction-time,1,R,2,0,63,4123,0,4,526,424,T
2023-04-30T19:09:01Z,ln7kg8ue,serial-reaction-time,1,P,2,1,64,4123,0,3,416.70000000298023,243,H
2023-04-30T19:09:02Z,ln7kg8ue,serial-reaction-time,1,R,2,1,65,4123,0,4,414.1000000014901,434,T
2023-04-30T19:09:02Z,ln7kg8ue,serial-reaction-time,1,P,2,1,66,4123,0,4,426,344,H
2023-04-30T19:09:03Z,ln7kg8ue,serial-reaction-time,1,R,2,1,67,4123,0,3,499.1000000014901,443,L
2023-04-30T19:09:03Z,ln7kg8ue,serial-reaction-time,NA,P,2,1,68,4123,0,1,45,431,H
2023-04-30T19:09:04Z,ln7kg8ue,serial-reaction-time,1,P,2,0,68,4123,0,1,584.7999999970198,431,H
2023-04-30T19:09:04Z,ln7kg8ue,serial-reaction-time,1,R,2,1,69,4123,0,3,591.2999999970198,313,T
2023-04-30T19:09:05Z,ln7kg8ue,serial-reaction-time,1,P,2,1,70,4123,0,2,473.5,132,H
2023-04-30T19:09:06Z,ln7kg8ue,serial-reaction-time,1,R,2,1,71,4123,0,2,351.1000000014901,322,L
2023-04-30T19:09:06Z,ln7kg8ue,serial-reaction-time,1,P,2,1,72,4123,0,3,289.90000000596046,223,H
2023-04-30T19:09:06Z,ln7kg8ue,serial-reaction-time,NA,R,2,1,73,4123,0,1,263.1000000014901,231,L
2023-04-30T19:09:07Z,ln7kg8ue,serial-reaction-time,1,R,2,0,73,4123,0,1,500,231,L
2023-04-30T19:09:07Z,ln7kg8ue,serial-reaction-time,1,P,2,1,74,4123,0,4,387.8999999985099,314,H
2023-04-30T19:09:08Z,ln7kg8ue,serial-reaction-time,1,R,2,1,75,4123,0,3,346.5,143,L
2023-04-30T19:09:08Z,ln7kg8ue,serial-reaction-time,NA,P,2,1,76,4123,0,1,111.5,431,H
2023-04-30T19:09:08Z,ln7kg8ue,serial-reaction-time,1,P,2,0,76,4123,0,1,464,431,H
2023-04-30T19:09:09Z,ln7kg8ue,serial-reaction-time,1,R,2,1,77,4123,0,2,522.3999999985099,312,L
2023-04-30T19:09:09Z,ln7kg8ue,serial-reaction-time,1,P,2,1,78,4123,0,2,320.3999999985099,122,H
2023-04-30T19:09:10Z,ln7kg8ue,serial-reaction-time,1,R,2,1,79,4123,0,2,157.69999999552965,222,R
2023-04-30T19:09:10Z,ln7kg8ue,serial-reaction-time,1,P,2,1,80,4123,0,3,378.1000000014901,223,H
2023-04-30T19:09:15Z,ln7kg8ue,html-keyboard-response,NA,NA,NA,NA,NA,NA,NA,NA,NA,NA,NA
2023-04-30T19:09:16Z,ln7kg8ue,html-keyboard-response,NA,NA,NA,NA,NA,NA,NA,NA,NA,NA,NA
2023-04-30T19:09:17Z,ln7kg8ue,serial-reaction-time,1,R,3,1,1,4123,0,1,673.1999999955297,1,X
2023-04-30T19:09:18Z,ln7kg8ue,serial-reaction-time,1,P,3,1,2,4123,0,4,337.19999999552965,14,X
2023-04-30T19:09:18Z,ln7kg8ue,serial-reaction-time,1,R,3,1,3,4123,0,4,271.40000000596046,144,L
2023-04-30T19:09:19Z,ln7kg8ue,serial-reaction-time,1,P,3,1,4,4123,0,1,343,441,H
2023-04-30T19:09:19Z,ln7kg8ue,serial-reaction-time,NA,R,3,1,5,4123,0,2,276.80000000447035,412,L
2023-04-30T19:09:19Z,ln7kg8ue,serial-reaction-time,1,R,3,0,5,4123,0,2,459.80000000447035,412,L
2023-04-30T19:09:20Z,ln7kg8ue,serial-reaction-time,1,P,3,1,6,4123,0,2,672.5,122,H
2023-04-30T19:09:21Z,ln7kg8ue,serial-reaction-time,1,R,3,1,7,4123,0,1,499.5,221,L
2023-04-30T19:09:21Z,ln7kg8ue,serial-reaction-time,1,P,3,1,8,4123,0,3,347.8999999985099,213,H
2023-04-30T19:09:22Z,ln7kg8ue,serial-reaction-time,1,R,3,1,9,4123,0,2,316.8999999985099,132,H
2023-04-30T19:09:22Z,ln7kg8ue,serial-reaction-time,1,P,3,1,10,4123,0,4,341.6000000014901,324,H
2023-04-30T19:09:23Z,ln7kg8ue,serial-reaction-time,1,R,3,1,11,4123,0,1,388.70000000298023,241,L
2023-04-30T19:09:23Z,ln7kg8ue,serial-reaction-time,1,P,3,1,12,4123,0,1,433.5,411,H
2023-04-30T19:09:24Z,ln7kg8ue,serial-reaction-time,1,R,3,1,13,4123,0,3,372.70000000298023,113,L
2023-04-30T19:09:24Z,ln7kg8ue,serial-reaction-time,1,P,3,1,14,4123,0,2,310.80000000447035,132,H
2023-04-30T19:09:25Z,ln7kg8ue,serial-reaction-time,1,R,3,1,15,4123,0,3,365.3999999985099,323,T
2023-04-30T19:09:25Z,ln7kg8ue,serial-reaction-time,1,P,3,1,16,4123,0,3,302.79999999701977,233,H
2023-04-30T19:09:26Z,ln7kg8ue,serial-reaction-time,1,R,3,1,17,4123,0,1,568.1000000014901,331,L
2023-04-30T19:09:26Z,ln7kg8ue,serial-reaction-time,1,P,3,1,18,4123,0,4,401.8999999985099,314,H
2023-04-30T19:09:27Z,ln7kg8ue,serial-reaction-time,1,R,3,1,19,4123,0,4,335.5,144,L
2023-04-30T19:09:27Z,ln7kg8ue,serial-reaction-time,1,P,3,1,20,4123,0,1,332.69999999552965,441,H
2023-04-30T19:09:28Z,ln7kg8ue,serial-reaction-time,1,R,3,1,21,4123,0,2,382.29999999701977,412,L
2023-04-30T19:09:28Z,ln7kg8ue,serial-reaction-time,1,P,3,1,22,4123,0,2,345.8999999985099,122,H
2023-04-30T19:09:29Z,ln7kg8ue,serial-reaction-time,1,R,3,1,23,4123,0,4,340.30000000447035,224,L
2023-04-30T19:09:29Z,ln7kg8ue,serial-reaction-time,1,P,3,1,24,4123,0,3,435.1000000014901,243,H
2023-04-30T19:09:30Z,ln7kg8ue,serial-reaction-time,1,R,3,1,25,4123,0,4,361.40000000596046,434,T
2023-04-30T19:09:30Z,ln7kg8ue,serial-reaction-time,1,P,3,1,26,4123,0,4,310.69999999552965,344,H
2023-04-30T19:09:31Z,ln7kg8ue,serial-reaction-time,1,R,3,1,27,4123,0,1,344.69999999552965,441,H
2023-04-30T19:09:31Z,ln7kg8ue,serial-reaction-time,1,P,3,1,28,4123,0,1,321.20000000298023,411,H
2023-04-30T19:09:32Z,ln7kg8ue,serial-reaction-time,1,R,3,1,29,4123,0,3,385.3999999985099,113,L
2023-04-30T19:09:32Z,ln7kg8ue,serial-reaction-time,1,P,3,1,30,4123,0,2,336.6000000014901,132,H
2023-04-30T19:09:33Z,ln7kg8ue,serial-reaction-time,1,R,3,1,31,4123,0,1,424.70000000298023,321,L
2023-04-30T19:09:33Z,ln7kg8ue,serial-reaction-time,1,P,3,1,32,4123,0,3,353.5,213,H
2023-04-30T19:09:34Z,ln7kg8ue,serial-reaction-time,1,R,3,1,33,4123,0,3,351.30000000447035,133,L
2023-04-30T19:09:34Z,ln7kg8ue,serial-reaction-time,1,P,3,1,34,4123,0,4,378.79999999701977,334,H
2023-04-30T19:09:35Z,ln7kg8ue,serial-reaction-time,NA,R,3,1,35,4123,0,2,424.5,342,L
2023-04-30T19:09:35Z,ln7kg8ue,serial-reaction-time,1,R,3,0,35,4123,0,2,579.1000000014901,342,L
2023-04-30T19:09:35Z,ln7kg8ue,serial-reaction-time,1,P,3,1,36,4123,0,1,301.70000000298023,421,H
2023-04-30T19:09:36Z,ln7kg8ue,serial-reaction-time,1,R,3,1,37,4123,0,4,408.30000000447035,214,L
2023-04-30T19:09:37Z,ln7kg8ue,serial-reaction-time,NA,P,3,1,38,4123,0,2,670.3999999985099,142,H
2023-04-30T19:09:37Z,ln7kg8ue,serial-reaction-time,1,P,3,0,38,4123,0,2,1086.60000000149,142,H
2023-04-30T19:09:38Z,ln7kg8ue,serial-reaction-time,1,R,3,1,39,4123,0,4,934.5,424,T
2023-04-30T19:09:39Z,ln7kg8ue,serial-reaction-time,1,P,3,1,40,4123,0,3,791,243,H
2023-04-30T19:09:39Z,ln7kg8ue,serial-reaction-time,1,R,3,1,41,4123,0,1,391,431,H
2023-04-30T19:09:40Z,ln7kg8ue,serial-reaction-time,1,P,3,1,42,4123,0,4,397.1000000014901,314,H
2023-04-30T19:09:41Z,ln7kg8ue,serial-reaction-time,1,R,3,1,43,4123,0,1,351.79999999701977,141,T
2023-04-30T19:09:41Z,ln7kg8ue,serial-reaction-time,1,P,3,1,44,4123,0,1,292,411,H
2023-04-30T19:09:41Z,ln7kg8ue,serial-reaction-time,1,R,3,1,45,4123,0,2,332.8999999985099,112,H
2023-04-30T19:09:42Z,ln7kg8ue,serial-reaction-time,1,P,3,1,46,4123,0,2,240.5,122,H
2023-04-30T19:09:42Z,ln7kg8ue,serial-reaction-time,1,R,3,1,47,4123,0,4,338.3999999985099,224,L
2023-04-30T19:09:43Z,ln7kg8ue,serial-reaction-time,NA,P,3,1,48,4123,0,3,264.6000000014901,243,H
2023-04-30T19:09:43Z,ln7kg8ue,serial-reaction-time,1,P,3,0,48,4123,0,3,511.70000000298023,243,H
2023-04-30T19:09:43Z,ln7kg8ue,serial-reaction-time,1,R,3,1,49,4123,0,2,259.70000000298023,432,L
2023-04-30T19:09:44Z,ln7kg8ue,serial-reaction-time,1,P,3,1,50,4123,0,4,359.70000000298023,324,H
2023-04-30T19:09:44Z,ln7kg8ue,serial-reaction-time,1,R,3,1,51,4123,0,2,345.5,242,T
2023-04-30T19:09:45Z,ln7kg8ue,serial-reaction-time,1,P,3,1,52,4123,0,1,252.20000000298023,421,H
2023-04-30T19:09:45Z,ln7kg8ue,serial-reaction-time,1,R,3,1,53,4123,0,1,328.69999999552965,211,L
2023-04-30T19:09:45Z,ln7kg8ue,serial-reaction-time,1,P,3,1,54,4123,0,2,293.3999999985099,112,H
2023-04-30T19:09:46Z,ln7kg8ue,serial-reaction-time,1,R,3,1,55,4123,0,2,272.79999999701977,122,H
2023-04-30T19:09:46Z,ln7kg8ue,serial-reaction-time,1,P,3,1,56,4123,0,3,381.6000000014901,223,H
2023-04-30T19:09:47Z,ln7kg8ue,serial-reaction-time,1,R,3,1,57,4123,0,3,247.39999999850988,233,H
2023-04-30T19:09:47Z,ln7kg8ue,serial-reaction-time,1,P,3,1,58,4123,0,4,254.10000000149012,334,H
2023-04-30T19:09:48Z,ln7kg8ue,serial-reaction-time,1,R,3,1,59,4123,0,1,426.29999999701977,341,L
2023-04-30T19:09:48Z,ln7kg8ue,serial-reaction-time,1,P,3,1,60,4123,0,1,230.4000000059605,411,H
2023-04-30T19:09:49Z,ln7kg8ue,serial-reaction-time,1,R,3,1,61,4123,0,1,468,111,R
2023-04-30T19:09:49Z,ln7kg8ue,serial-reaction-time,1,P,3,1,62,4123,0,2,343.8999999985099,112,H
2023-04-30T19:09:50Z,ln7kg8ue,serial-reaction-time,NA,R,3,1,63,4123,0,4,436.8999999985099,124,L
2023-04-30T19:09:50Z,ln7kg8ue,serial-reaction-time,1,R,3,0,63,4123,0,4,667.3999999985099,124,L
2023-04-30T19:09:50Z,ln7kg8ue,serial-reaction-time,1,P,3,1,64,4123,0,3,447,243,H
2023-04-30T19:09:51Z,ln7kg8ue,serial-reaction-time,1,R,3,1,65,4123,0,1,296.6000000014901,431,H
2023-04-30T19:09:51Z,ln7kg8ue,serial-reaction-time,1,P,3,1,66,4123,0,4,429,314,H
2023-04-30T19:09:52Z,ln7kg8ue,serial-reaction-time,1,R,3,1,67,4123,0,4,440.1000000014901,144,L
2023-04-30T19:09:52Z,ln7kg8ue,serial-reaction-time,1,P,3,1,68,4123,0,1,351.79999999701977,441,H
2023-04-30T19:09:53Z,ln7kg8ue,serial-reaction-time,1,R,3,1,69,4123,0,2,504,412,L
2023-04-30T19:09:54Z,ln7kg8ue,serial-reaction-time,1,P,3,1,70,4123,0,2,306.3999999985099,122,H
2023-04-30T19:09:54Z,ln7kg8ue,serial-reaction-time,1,R,3,1,71,4123,0,1,359,221,L
2023-04-30T19:09:55Z,ln7kg8ue,serial-reaction-time,NA,P,3,1,72,4123,0,3,350.19999999552965,213,H
2023-04-30T19:09:55Z,ln7kg8ue,serial-reaction-time,1,P,3,0,72,4123,0,3,570.7999999970198,213,H
2023-04-30T19:09:55Z,ln7kg8ue,serial-reaction-time,1,R,3,1,73,4123,0,2,292,132,H
2023-04-30T19:09:56Z,ln7kg8ue,serial-reaction-time,1,P,3,1,74,4123,0,4,374.70000000298023,324,H
2023-04-30T19:09:56Z,ln7kg8ue,serial-reaction-time,1,R,3,1,75,4123,0,2,206.5999999940395,242,T
2023-04-30T19:09:56Z,ln7kg8ue,serial-reaction-time,1,P,3,1,76,4123,0,1,369.19999999552965,421,H
2023-04-30T19:09:57Z,ln7kg8ue,serial-reaction-time,NA,R,3,1,77,4123,0,4,315.19999999552965,214,L
2023-04-30T19:09:57Z,ln7kg8ue,serial-reaction-time,1,R,3,0,77,4123,0,4,633.2999999895692,214,L
2023-04-30T19:09:58Z,ln7kg8ue,serial-reaction-time,1,P,3,1,78,4123,0,2,259.20000000298023,142,H
2023-04-30T19:09:58Z,ln7kg8ue,serial-reaction-time,NA,R,3,1,79,4123,0,3,278.59999999403954,423,L
2023-04-30T19:09:58Z,ln7kg8ue,serial-reaction-time,1,R,3,0,79,4123,0,3,418.9999999925494,423,L
2023-04-30T19:09:59Z,ln7kg8ue,serial-reaction-time,1,P,3,1,80,4123,0,3,411,233,H
2023-04-30T19:10:04Z,ln7kg8ue,html-keyboard-response,NA,NA,NA,NA,NA,NA,NA,NA,NA,NA,NA
2023-04-30T19:10:04Z,ln7kg8ue,html-keyboard-response,NA,NA,NA,NA,NA,NA,NA,NA,NA,NA,NA
2023-04-30T19:10:06Z,ln7kg8ue,serial-reaction-time,1,R,4,1,1,4123,0,4,902.2000000029802,4,X
2023-04-30T19:10:07Z,ln7kg8ue,serial-reaction-time,1,P,4,1,2,4123,0,4,298.90000000596046,44,X
2023-04-30T19:10:07Z,ln7kg8ue,serial-reaction-time,1,R,4,1,3,4123,0,3,353.19999999552965,443,L
2023-04-30T19:10:08Z,ln7kg8ue,serial-reaction-time,1,P,4,1,4,4123,0,1,355.3999999985099,431,H
2023-04-30T19:10:08Z,ln7kg8ue,serial-reaction-time,1,R,4,1,5,4123,0,4,374.5,314,H
2023-04-30T19:10:09Z,ln7kg8ue,serial-reaction-time,1,P,4,1,6,4123,0,2,349.59999999403954,142,H
2023-04-30T19:10:09Z,ln7kg8ue,serial-reaction-time,NA,R,4,1,7,4123,0,3,380.79999999701977,423,L
2023-04-30T19:10:09Z,ln7kg8ue,serial-reaction-time,1,R,4,0,7,4123,0,3,706.3999999910593,423,L
2023-04-30T19:10:10Z,ln7kg8ue,serial-reaction-time,1,P,4,1,8,4123,0,3,338.80000000447035,233,H
2023-04-30T19:10:10Z,ln7kg8ue,serial-reaction-time,NA,R,4,1,9,4123,0,4,311.30000000447035,334,H
2023-04-30T19:10:11Z,ln7kg8ue,serial-reaction-time,1,R,4,0,9,4123,0,4,467.90000000596046,334,H
2023-04-30T19:10:11Z,ln7kg8ue,serial-reaction-time,1,P,4,1,10,4123,0,4,334,344,H
2023-04-30T19:10:12Z,ln7kg8ue,serial-reaction-time,1,R,4,1,11,4123,0,2,363.6000000014901,442,L
2023-04-30T19:10:12Z,ln7kg8ue,serial-reaction-time,1,P,4,1,12,4123,0,1,289,421,H
2023-04-30T19:10:12Z,ln7kg8ue,serial-reaction-time,1,R,4,1,13,4123,0,3,349.69999999552965,213,H
2023-04-30T19:10:13Z,ln7kg8ue,serial-reaction-time,1,P,4,1,14,4123,0,2,263.8999999985099,132,H
2023-04-30T19:10:13Z,ln7kg8ue,serial-reaction-time,1,R,4,1,15,4123,0,4,297.8999999985099,324,H
2023-04-30T19:10:14Z,ln7kg8ue,serial-reaction-time,1,P,4,1,16,4123,0,3,361.8999999985099,243,H
2023-04-30T19:10:14Z,ln7kg8ue,serial-reaction-time,1,R,4,1,17,4123,0,2,279.59999999403954,432,L
2023-04-30T19:10:15Z,ln7kg8ue,serial-reaction-time,1,P,4,1,18,4123,0,4,312.80000000447035,324,H
2023-04-30T19:10:15Z,ln7kg8ue,serial-reaction-time,1,R,4,1,19,4123,0,2,385.1000000014901,242,T
2023-04-30T19:10:15Z,ln7kg8ue,serial-reaction-time,1,P,4,1,20,4123,0,1,304.59999999403954,421,H
2023-04-30T19:10:16Z,ln7kg8ue,serial-reaction-time,1,R,4,1,21,4123,0,2,365.20000000298023,212,T
2023-04-30T19:10:16Z,ln7kg8ue,serial-reaction-time,NA,P,4,1,22,4123,0,2,280.19999999552965,122,H
2023-04-30T19:10:17Z,ln7kg8ue,serial-reaction-time,1,P,4,0,22,4123,0,2,475.79999999701977,122,H
2023-04-30T19:10:17Z,ln7kg8ue,serial-reaction-time,1,R,4,1,23,4123,0,4,527.2000000029802,224,L
2023-04-30T19:10:18Z,ln7kg8ue,serial-reaction-time,1,P,4,1,24,4123,0,3,528.8999999985099,243,H
2023-04-30T19:10:18Z,ln7kg8ue,serial-reaction-time,1,R,4,1,25,4123,0,4,461.59999999403954,434,T
2023-04-30T19:10:19Z,ln7kg8ue,serial-reaction-time,1,P,4,1,26,4123,0,4,348,344,H
2023-04-30T19:10:19Z,ln7kg8ue,serial-reaction-time,1,R,4,1,27,4123,0,4,337.29999999701977,444,R
2023-04-30T19:10:20Z,ln7kg8ue,serial-reaction-time,1,P,4,1,28,4123,0,1,391.8999999985099,441,H
2023-04-30T19:10:20Z,ln7kg8ue,serial-reaction-time,NA,R,4,1,29,4123,0,4,341.70000000298023,414,T
2023-04-30T19:10:21Z,ln7kg8ue,serial-reaction-time,1,R,4,0,29,4123,0,4,711.7999999970198,414,T
2023-04-30T19:10:21Z,ln7kg8ue,serial-reaction-time,1,P,4,1,30,4123,0,2,308.20000000298023,142,H
2023-04-30T19:10:22Z,ln7kg8ue,serial-reaction-time,1,R,4,1,31,4123,0,4,305.8999999985099,424,T
2023-04-30T19:10:22Z,ln7kg8ue,serial-reaction-time,NA,P,4,1,32,4123,0,3,325.3999999985099,243,H
2023-04-30T19:10:22Z,ln7kg8ue,serial-reaction-time,1,P,4,0,32,4123,0,3,380,243,H
2023-04-30T19:10:23Z,ln7kg8ue,serial-reaction-time,1,R,4,1,33,4123,0,4,423.5,434,T
2023-04-30T19:10:23Z,ln7kg8ue,serial-reaction-time,1,P,4,1,34,4123,0,4,306.79999999701977,344,H
2023-04-30T19:10:24Z,ln7kg8ue,serial-reaction-time,NA,R,4,1,35,4123,0,1,391,441,H
2023-04-30T19:10:24Z,ln7kg8ue,serial-reaction-time,1,R,4,0,35,4123,0,1,607.2000000029802,441,H
2023-04-30T19:10:24Z,ln7kg8ue,serial-reaction-time,1,P,4,1,36,4123,0,1,394,411,H
2023-04-30T19:10:25Z,ln7kg8ue,serial-reaction-time,1,R,4,1,37,4123,0,4,425.30000000447035,114,L
2023-04-30T19:10:26Z,ln7kg8ue,serial-reaction-time,1,P,4,1,38,4123,0,2,469.3999999985099,142,H
2023-04-30T19:10:26Z,ln7kg8ue,serial-reaction-time,1,R,4,1,39,4123,0,2,254.29999999701977,422,L
2023-04-30T19:10:26Z,ln7kg8ue,serial-reaction-time,1,P,4,1,40,4123,0,3,335.1000000014901,223,H
2023-04-30T19:10:27Z,ln7kg8ue,serial-reaction-time,NA,R,4,1,41,4123,0,4,218.5,234,L
2023-04-30T19:10:27Z,ln7kg8ue,serial-reaction-time,1,R,4,0,41,4123,0,4,412.5,234,L
2023-04-30T19:10:27Z,ln7kg8ue,serial-reaction-time,1,P,4,1,42,4123,0,4,408.79999999701977,344,H
2023-04-30T19:10:28Z,ln7kg8ue,serial-reaction-time,1,R,4,1,43,4123,0,3,418.70000000298023,443,L
2023-04-30T19:10:28Z,ln7kg8ue,serial-reaction-time,NA,P,4,1,44,4123,0,1,281.1000000014901,431,H
2023-04-30T19:10:29Z,ln7kg8ue,serial-reaction-time,1,P,4,0,44,4123,0,1,558.1999999955297,431,H
2023-04-30T19:10:29Z,ln7kg8ue,serial-reaction-time,1,R,4,1,45,4123,0,4,470.20000000298023,314,H
2023-04-30T19:10:30Z,ln7kg8ue,serial-reaction-time,1,P,4,1,46,4123,0,2,339.3999999985099,142,H
2023-04-30T19:10:30Z,ln7kg8ue,serial-reaction-time,1,R,4,1,47,4123,0,1,384.8999999985099,421,H
2023-04-30T19:10:31Z,ln7kg8ue,serial-reaction-time,1,P,4,1,48,4123,0,3,429.30000000447035,213,H
2023-04-30T19:10:31Z,ln7kg8ue,serial-reaction-time,NA,R,4,1,49,4123,0,1,246.20000000298023,131,T
2023-04-30T19:10:31Z,ln7kg8ue,serial-reaction-time,1,R,4,0,49,4123,0,1,438.0000000074506,131,T
2023-04-30T19:10:32Z,ln7kg8ue,serial-reaction-time,1,P,4,1,50,4123,0,4,322.30000000447035,314,H
2023-04-30T19:10:32Z,ln7kg8ue,serial-reaction-time,1,R,4,1,51,4123,0,2,309.8999999985099,142,H
2023-04-30T19:10:33Z,ln7kg8ue,serial-reaction-time,1,P,4,1,52,4123,0,1,310.6000000014901,421,H
2023-04-30T19:10:33Z,ln7kg8ue,serial-reaction-time,1,R,4,1,53,4123,0,1,347.29999999701977,211,L
2023-04-30T19:10:34Z,ln7kg8ue,serial-reaction-time,NA,P,4,1,54,4123,0,2,302.69999999552965,112,H
2023-04-30T19:10:34Z,ln7kg8ue,serial-reaction-time,1,P,4,0,54,4123,0,2,504,112,H
2023-04-30T19:10:34Z,ln7kg8ue,serial-reaction-time,1,R,4,1,55,4123,0,4,342.5,124,L
2023-04-30T19:10:35Z,ln7kg8ue,serial-reaction-time,1,P,4,1,56,4123,0,3,498.8999999985099,243,H
2023-04-30T19:10:35Z,ln7kg8ue,serial-reaction-time,NA,R,4,1,57,4123,0,2,223.89999999850988,432,L
2023-04-30T19:10:36Z,ln7kg8ue,serial-reaction-time,1,R,4,0,57,4123,0,2,711.1999999955297,432,L
2023-04-30T19:10:36Z,ln7kg8ue,serial-reaction-time,1,P,4,1,58,4123,0,4,251.5,324,H
2023-04-30T19:10:37Z,ln7kg8ue,serial-reaction-time,1,R,4,1,59,4123,0,4,420.5,244,L
2023-04-30T19:10:37Z,ln7kg8ue,serial-reaction-time,1,P,4,1,60,4123,0,1,388.5,441,H
2023-04-30T19:10:38Z,ln7kg8ue,serial-reaction-time,1,R,4,1,61,4123,0,1,335.8999999985099,411,H
2023-04-30T19:10:38Z,ln7kg8ue,serial-reaction-time,1,P,4,1,62,4123,0,2,378.59999999403954,112,H
2023-04-30T19:10:39Z,ln7kg8ue,serial-reaction-time,1,R,4,1,63,4123,0,3,374,123,L
2023-04-30T19:10:39Z,ln7kg8ue,serial-reaction-time,1,P,4,1,64,4123,0,3,358.1000000014901,233,H
2023-04-30T19:10:40Z,ln7kg8ue,serial-reaction-time,1,R,4,1,65,4123,0,3,375.1000000014901,333,R
2023-04-30T19:10:40Z,ln7kg8ue,serial-reaction-time,1,P,4,1,66,4123,0,4,302.5,334,H
2023-04-30T19:10:41Z,ln7kg8ue,serial-reaction-time,1,R,4,1,67,4123,0,3,587.6999999955297,343,T
2023-04-30T19:10:41Z,ln7kg8ue,serial-reaction-time,1,P,4,1,68,4123,0,1,294.29999999701977,431,H
2023-04-30T19:10:42Z,ln7kg8ue,serial-reaction-time,1,R,4,1,69,4123,0,4,420.40000000596046,314,H
2023-04-30T19:10:42Z,ln7kg8ue,serial-reaction-time,1,P,4,1,70,4123,0,2,309.80000000447035,142,H
2023-04-30T19:10:43Z,ln7kg8ue,serial-reaction-time,1,R,4,1,71,4123,0,2,390.70000000298023,422,L
2023-04-30T19:10:43Z,ln7kg8ue,serial-reaction-time,1,P,4,1,72,4123,0,3,342.59999999403954,223,H
2023-04-30T19:10:44Z,ln7kg8ue,serial-reaction-time,1,R,4,1,73,4123,0,1,320.29999999701977,231,L
2023-04-30T19:10:44Z,ln7kg8ue,serial-reaction-time,1,P,4,1,74,4123,0,4,346.1000000014901,314,H
2023-04-30T19:10:45Z,ln7kg8ue,serial-reaction-time,1,R,4,1,75,4123,0,3,388,143,L
2023-04-30T19:10:45Z,ln7kg8ue,serial-reaction-time,1,P,4,1,76,4123,0,1,354,431,H
2023-04-30T19:10:46Z,ln7kg8ue,serial-reaction-time,NA,R,4,1,77,4123,0,3,293.30000000447035,313,T
2023-04-30T19:10:46Z,ln7kg8ue,serial-reaction-time,NA,R,4,0,77,4123,0,3,552.9000000059605,313,T
2023-04-30T19:10:46Z,ln7kg8ue,serial-reaction-time,1,R,4,0,77,4123,0,3,843.4000000059605,313,T
2023-04-30T19:10:47Z,ln7kg8ue,serial-reaction-time,1,P,4,1,78,4123,0,2,615.3999999985099,132,H
2023-04-30T19:10:47Z,ln7kg8ue,serial-reaction-time,1,R,4,1,79,4123,0,2,244.80000000447035,322,L
2023-04-30T19:10:48Z,ln7kg8ue,serial-reaction-time,NA,P,4,1,80,4123,0,3,341.8999999985099,223,H
2023-04-30T19:10:48Z,ln7kg8ue,serial-reaction-time,1,P,4,0,80,4123,0,3,661.8999999985099,223,H
2023-04-30T19:10:53Z,ln7kg8ue,html-keyboard-response,NA,NA,NA,NA,NA,NA,NA,NA,NA,NA,NA
2023-04-30T19:10:54Z,ln7kg8ue,html-keyboard-response,NA,NA,NA,NA,NA,NA,NA,NA,NA,NA,NA
2023-04-30T19:10:56Z,ln7kg8ue,serial-reaction-time,1,R,5,1,1,4123,0,3,402,3,X
2023-04-30T19:10:56Z,ln7kg8ue,serial-reaction-time,1,P,5,1,2,4123,0,4,335.5,34,X
2023-04-30T19:10:56Z,ln7kg8ue,serial-reaction-time,1,R,5,1,3,4123,0,4,321,344,H
2023-04-30T19:10:57Z,ln7kg8ue,serial-reaction-time,1,P,5,1,4,4123,0,1,336.29999999701977,441,H
2023-04-30T19:10:57Z,ln7kg8ue,serial-reaction-time,1,R,5,1,5,4123,0,1,303.8999999985099,411,H
2023-04-30T19:10:58Z,ln7kg8ue,serial-reaction-time,1,P,5,1,6,4123,0,2,301.1000000014901,112,H
2023-04-30T19:10:58Z,ln7kg8ue,serial-reaction-time,1,R,5,1,7,4123,0,4,388.70000000298023,124,L
2023-04-30T19:10:59Z,ln7kg8ue,serial-reaction-time,1,P,5,1,8,4123,0,3,302.70000000298023,243,H
2023-04-30T19:10:59Z,ln7kg8ue,serial-reaction-time,1,R,5,1,9,4123,0,4,350.30000000447035,434,T
2023-04-30T19:11:00Z,ln7kg8ue,serial-reaction-time,1,P,5,1,10,4123,0,4,351.80000000447035,344,H
2023-04-30T19:11:00Z,ln7kg8ue,serial-reaction-time,1,R,5,1,11,4123,0,2,401.1000000014901,442,L
2023-04-30T19:11:01Z,ln7kg8ue,serial-reaction-time,1,P,5,1,12,4123,0,1,291.3999999985099,421,H
2023-04-30T19:11:01Z,ln7kg8ue,serial-reaction-time,1,R,5,1,13,4123,0,2,344.5,212,T
2023-04-30T19:11:02Z,ln7kg8ue,serial-reaction-time,1,P,5,1,14,4123,0,2,352.6000000014901,122,H
2023-04-30T19:11:02Z,ln7kg8ue,serial-reaction-time,1,R,5,1,15,4123,0,2,389.59999999403954,222,R
2023-04-30T19:11:03Z,ln7kg8ue,serial-reaction-time,1,P,5,1,16,4123,0,3,418.5,223,H
2023-04-30T19:11:03Z,ln7kg8ue,serial-reaction-time,1,R,5,1,17,4123,0,1,342.69999999552965,231,L
2023-04-30T19:11:04Z,ln7kg8ue,serial-reaction-time,1,P,5,1,18,4123,0,4,497.59999999403954,314,H
2023-04-30T19:11:04Z,ln7kg8ue,serial-reaction-time,1,R,5,1,19,4123,0,1,354.1000000014901,141,T
2023-04-30T19:11:05Z,ln7kg8ue,serial-reaction-time,1,P,5,1,20,4123,0,1,305.1000000014901,411,H
2023-04-30T19:11:05Z,ln7kg8ue,serial-reaction-time,1,R,5,1,21,4123,0,2,348.6000000014901,112,H
2023-04-30T19:11:06Z,ln7kg8ue,serial-reaction-time,1,P,5,1,22,4123,0,2,290,122,H
2023-04-30T19:11:06Z,ln7kg8ue,serial-reaction-time,1,R,5,1,23,4123,0,4,312,224,L
2023-04-30T19:11:06Z,ln7kg8ue,serial-reaction-time,NA,P,5,1,24,4123,0,3,282.5,243,H
2023-04-30T19:11:07Z,ln7kg8ue,serial-reaction-time,1,P,5,0,24,4123,0,3,413,243,H
2023-04-30T19:11:07Z,ln7kg8ue,serial-reaction-time,1,R,5,1,25,4123,0,2,296.6000000014901,432,L
2023-04-30T19:11:07Z,ln7kg8ue,serial-reaction-time,1,P,5,1,26,4123,0,4,434.19999999552965,324,H
2023-04-30T19:11:08Z,ln7kg8ue,serial-reaction-time,1,R,5,1,27,4123,0,4,540.2000000029802,244,L
2023-04-30T19:11:09Z,ln7kg8ue,serial-reaction-time,1,P,5,1,28,4123,0,1,400.8999999985099,441,H
2023-04-30T19:11:09Z,ln7kg8ue,serial-reaction-time,NA,R,5,1,29,4123,0,2,242.5,412,L
2023-04-30T19:11:09Z,ln7kg8ue,serial-reaction-time,1,R,5,0,29,4123,0,2,436.69999999552965,412,L
2023-04-30T19:11:10Z,ln7kg8ue,serial-reaction-time,1,P,5,1,30,4123,0,2,317.20000000298023,122,H
2023-04-30T19:11:10Z,ln7kg8ue,serial-reaction-time,1,R,5,1,31,4123,0,1,609.2000000029802,221,L
2023-04-30T19:11:11Z,ln7kg8ue,serial-reaction-time,NA,P,5,1,32,4123,0,3,550.2000000029802,213,H
2023-04-30T19:11:11Z,ln7kg8ue,serial-reaction-time,1,P,5,0,32,4123,0,3,886.8000000044703,213,H
2023-04-30T19:11:12Z,ln7kg8ue,serial-reaction-time,1,R,5,1,33,4123,0,2,526.5,132,H
2023-04-30T19:11:13Z,ln7kg8ue,serial-reaction-time,1,P,5,1,34,4123,0,4,362.5,324,H
2023-04-30T19:11:13Z,ln7kg8ue,serial-reaction-time,NA,R,5,1,35,4123,0,1,323.5,241,L
2023-04-30T19:11:13Z,ln7kg8ue,serial-reaction-time,1,R,5,0,35,4123,0,1,658.7000000029802,241,L
2023-04-30T19:11:14Z,ln7kg8ue,serial-reaction-time,1,P,5,1,36,4123,0,1,326.8999999985099,411,H
2023-04-30T19:11:14Z,ln7kg8ue,serial-reaction-time,1,R,5,1,37,4123,0,3,495.69999999552965,113,L
2023-04-30T19:11:15Z,ln7kg8ue,serial-reaction-time,1,P,5,1,38,4123,0,2,757.1000000014901,132,H
2023-04-30T19:11:16Z,ln7kg8ue,serial-reaction-time,1,R,5,1,39,4123,0,2,384.40000000596046,322,L
2023-04-30T19:11:16Z,ln7kg8ue,serial-reaction-time,NA,P,5,1,40,4123,0,3,389.29999999701977,223,H
2023-04-30T19:11:17Z,ln7kg8ue,serial-reaction-time,1,P,5,0,40,4123,0,3,616.6999999955297,223,H
2023-04-30T19:11:17Z,ln7kg8ue,serial-reaction-time,1,R,5,1,41,4123,0,2,489.8999999985099,232,T
2023-04-30T19:11:18Z,ln7kg8ue,serial-reaction-time,NA,P,5,1,42,4123,0,4,320.79999999701977,324,H
2023-04-30T19:11:18Z,ln7kg8ue,serial-reaction-time,1,P,5,0,42,4123,0,4,491.09999999403954,324,H
2023-04-30T19:11:19Z,ln7kg8ue,serial-reaction-time,1,R,5,1,43,4123,0,1,546,241,L
2023-04-30T19:11:19Z,ln7kg8ue,serial-reaction-time,1,P,5,1,44,4123,0,1,232.5,411,H
2023-04-30T19:11:20Z,ln7kg8ue,serial-reaction-time,1,R,5,1,45,4123,0,4,530.5,114,L
2023-04-30T19:11:20Z,ln7kg8ue,serial-reaction-time,NA,P,5,1,46,4123,0,2,394.29999999701977,142,H
2023-04-30T19:11:20Z,ln7kg8ue,serial-reaction-time,1,P,5,0,46,4123,0,2,513.3999999985099,142,H
2023-04-30T19:11:21Z,ln7kg8ue,serial-reaction-time,NA,R,5,1,47,4123,0,3,699.8999999985099,423,L
2023-04-30T19:11:21Z,ln7kg8ue,serial-reaction-time,1,R,5,0,47,4123,0,3,989.0999999940396,423,L
2023-04-30T19:11:22Z,ln7kg8ue,serial-reaction-time,1,P,5,1,48,4123,0,3,337.29999999701977,233,H
2023-04-30T19:11:22Z,ln7kg8ue,serial-reaction-time,1,R,5,1,49,4123,0,4,524.2999999970198,334,H
2023-04-30T19:11:23Z,ln7kg8ue,serial-reaction-time,1,P,5,1,50,4123,0,4,301.1000000014901,344,H
2023-04-30T19:11:23Z,ln7kg8ue,serial-reaction-time,1,R,5,1,51,4123,0,1,441.90000000596046,441,H
2023-04-30T19:11:24Z,ln7kg8ue,serial-reaction-time,1,P,5,1,52,4123,0,1,291.59999999403954,411,H
2023-04-30T19:11:24Z,ln7kg8ue,serial-reaction-time,1,R,5,1,53,4123,0,1,384.1000000014901,111,R
2023-04-30T19:11:25Z,ln7kg8ue,serial-reaction-time,1,P,5,1,54,4123,0,2,444.79999999701977,112,H
2023-04-30T19:11:25Z,ln7kg8ue,serial-reaction-time,1,R,5,1,55,4123,0,3,404.29999999701977,123,L
2023-04-30T19:11:26Z,ln7kg8ue,serial-reaction-time,1,P,5,1,56,4123,0,3,376.5,233,H
2023-04-30T19:11:27Z,ln7kg8ue,serial-reaction-time,1,R,5,1,57,4123,0,1,474.5,331,L
2023-04-30T19:11:27Z,ln7kg8ue,serial-reaction-time,1,P,5,1,58,4123,0,4,374.29999999701977,314,H
2023-04-30T19:11:27Z,ln7kg8ue,serial-reaction-time,NA,R,5,1,59,4123,0,1,301.20000000298023,141,T
2023-04-30T19:11:28Z,ln7kg8ue,serial-reaction-time,1,R,5,0,59,4123,0,1,539.2000000029802,141,T
2023-04-30T19:11:29Z,ln7kg8ue,serial-reaction-time,1,P,5,1,60,4123,0,1,840.2999999970198,411,H
2023-04-30T19:11:29Z,ln7kg8ue,serial-reaction-time,1,R,5,1,61,4123,0,3,337.1000000014901,113,L
2023-04-30T19:11:30Z,ln7kg8ue,serial-reaction-time,1,P,5,1,62,4123,0,2,309.5,132,H
2023-04-30T19:11:30Z,ln7kg8ue,serial-reaction-time,1,R,5,1,63,4123,0,4,326.3999999985099,324,H
2023-04-30T19:11:30Z,ln7kg8ue,serial-reaction-time,NA,P,5,1,64,4123,0,3,300,243,H
2023-04-30T19:11:31Z,ln7kg8ue,serial-reaction-time,1,P,5,0,64,4123,0,3,603.8999999985099,243,H
2023-04-30T19:11:31Z,ln7kg8ue,serial-reaction-time,1,R,5,1,65,4123,0,1,200.60000000149012,431,H
2023-04-30T19:11:32Z,ln7kg8ue,serial-reaction-time,1,P,5,1,66,4123,0,4,448.29999999701977,314,H
2023-04-30T19:11:32Z,ln7kg8ue,serial-reaction-time,1,R,5,1,67,4123,0,2,413.90000000596046,142,H
2023-04-30T19:11:33Z,ln7kg8ue,serial-reaction-time,1,P,5,1,68,4123,0,1,328.29999999701977,421,H
2023-04-30T19:11:33Z,ln7kg8ue,serial-reaction-time,1,R,5,1,69,4123,0,1,335.8999999985099,211,L
2023-04-30T19:11:34Z,ln7kg8ue,serial-reaction-time,1,P,5,1,70,4123,0,2,368.90000000596046,112,H
2023-04-30T19:11:34Z,ln7kg8ue,serial-reaction-time,1,R,5,1,71,4123,0,4,389.5,124,L
2023-04-30T19:11:35Z,ln7kg8ue,serial-reaction-time,NA,P,5,1,72,4123,0,3,402.1000000014901,243,H
2023-04-30T19:11:35Z,ln7kg8ue,serial-reaction-time,1,P,5,0,72,4123,0,3,574.2000000029802,243,H
2023-04-30T19:11:35Z,ln7kg8ue,serial-reaction-time,1,R,5,1,73,4123,0,1,256.20000000298023,431,H
2023-04-30T19:11:36Z,ln7kg8ue,serial-reaction-time,1,P,5,1,74,4123,0,4,485.20000000298023,314,H
2023-04-30T19:11:36Z,ln7kg8ue,serial-reaction-time,NA,R,5,1,75,4123,0,4,338.90000000596046,144,L
2023-04-30T19:11:37Z,ln7kg8ue,serial-reaction-time,1,R,5,0,75,4123,0,4,627.8000000044703,144,L
2023-04-30T19:11:37Z,ln7kg8ue,serial-reaction-time,1,P,5,1,76,4123,0,1,362.40000000596046,441,H
2023-04-30T19:11:38Z,ln7kg8ue,serial-reaction-time,1,R,5,1,77,4123,0,2,380.8999999985099,412,L
2023-04-30T19:11:38Z,ln7kg8ue,serial-reaction-time,1,P,5,1,78,4123,0,2,323.6000000014901,122,H
2023-04-30T19:11:38Z,ln7kg8ue,serial-reaction-time,NA,R,5,1,79,4123,0,4,259.1000000014901,224,L
2023-04-30T19:11:39Z,ln7kg8ue,serial-reaction-time,1,R,5,0,79,4123,0,4,665.9000000059605,224,L
2023-04-30T19:11:39Z,ln7kg8ue,serial-reaction-time,NA,P,5,1,80,4123,0,3,521.2999999970198,243,H
2023-04-30T19:11:40Z,ln7kg8ue,serial-reaction-time,1,P,5,0,80,4123,0,3,631,243,H
2023-04-30T19:11:45Z,ln7kg8ue,html-keyboard-response,NA,NA,NA,NA,NA,NA,NA,NA,NA,NA,NA
2023-04-30T19:11:48Z,ln7kg8ue,html-keyboard-response,NA,NA,NA,NA,NA,NA,NA,NA,NA,NA,NA
2023-04-30T19:11:49Z,ln7kg8ue,fullscreen,NA,NA,NA,NA,NA,NA,NA,NA,NA,NA,NA
2023-04-30T20:34:04Z,0ldaeete,fullscreen,NA,NA,NA,NA,NA,NA,NA,NA,NA,NA,NA
2023-04-30T20:34:11Z,0ldaeete,html-keyboard-response,NA,NA,NA,NA,NA,NA,NA,NA,NA,NA,NA
2023-04-30T20:34:12Z,0ldaeete,serial-reaction-time,1,R,1,1,1,1423,0,3,422,3,X
2023-04-30T20:34:13Z,0ldaeete,serial-reaction-time,1,P,1,1,2,1423,0,1,367,31,X
2023-04-30T20:34:13Z,0ldaeete,serial-reaction-time,1,R,1,1,3,1423,0,2,355,312,L
2023-04-30T20:34:14Z,0ldaeete,serial-reaction-time,1,P,1,1,4,1423,0,4,461,124,H
2023-04-30T20:34:15Z,0ldaeete,serial-reaction-time,1,R,1,1,5,1423,0,4,462,244,L
2023-04-30T20:34:15Z,0ldaeete,serial-reaction-time,1,P,1,1,6,1423,0,2,436,442,H
2023-04-30T20:34:16Z,0ldaeete,serial-reaction-time,1,R,1,1,7,1423,0,3,388,423,L
2023-04-30T20:34:16Z,0ldaeete,serial-reaction-time,1,P,1,1,8,1423,0,3,268,233,H
2023-04-30T20:34:17Z,0ldaeete,serial-reaction-time,1,R,1,1,9,1423,0,1,390,331,H
2023-04-30T20:34:17Z,0ldaeete,serial-reaction-time,1,P,1,1,10,1423,0,1,292,311,H
2023-04-30T20:34:18Z,0ldaeete,serial-reaction-time,1,R,1,1,11,1423,0,4,416,114,H
2023-04-30T20:34:18Z,0ldaeete,serial-reaction-time,1,P,1,1,12,1423,0,4,544,144,H
2023-04-30T20:34:19Z,0ldaeete,serial-reaction-time,1,R,1,1,13,1423,0,2,335,442,H
2023-04-30T20:34:19Z,0ldaeete,serial-reaction-time,1,P,1,1,14,1423,0,2,302,422,H
2023-04-30T20:34:20Z,0ldaeete,serial-reaction-time,1,R,1,1,15,1423,0,3,340,223,H
2023-04-30T20:34:20Z,0ldaeete,serial-reaction-time,1,P,1,1,16,1423,0,3,280,233,H
2023-04-30T20:34:21Z,0ldaeete,serial-reaction-time,1,R,1,1,17,1423,0,2,403,332,L
2023-04-30T20:34:21Z,0ldaeete,serial-reaction-time,1,P,1,1,18,1423,0,1,392,321,H
2023-04-30T20:34:22Z,0ldaeete,serial-reaction-time,1,R,1,1,19,1423,0,1,266,211,L
2023-04-30T20:34:22Z,0ldaeete,serial-reaction-time,1,P,1,1,20,1423,0,4,609,114,H
2023-04-30T20:34:23Z,0ldaeete,serial-reaction-time,1,R,1,1,21,1423,0,2,356,142,L
2023-04-30T20:34:23Z,0ldaeete,serial-reaction-time,1,P,1,1,22,1423,0,2,279,422,H
2023-04-30T20:34:24Z,0ldaeete,serial-reaction-time,1,R,1,1,23,1423,0,1,331,221,L
2023-04-30T20:34:24Z,0ldaeete,serial-reaction-time,1,P,1,1,24,1423,0,3,379,213,H
2023-04-30T20:34:25Z,0ldaeete,serial-reaction-time,1,R,1,1,25,1423,0,1,365,131,T
2023-04-30T20:34:25Z,0ldaeete,serial-reaction-time,1,P,1,1,26,1423,0,1,406,311,H
2023-04-30T20:34:26Z,0ldaeete,serial-reaction-time,1,R,1,1,27,1423,0,3,328,113,L
2023-04-30T20:34:26Z,0ldaeete,serial-reaction-time,1,P,1,1,28,1423,0,4,580,134,H
2023-04-30T20:34:27Z,0ldaeete,serial-reaction-time,1,R,1,1,29,1423,0,3,359,343,T
2023-04-30T20:34:28Z,0ldaeete,serial-reaction-time,1,P,1,1,30,1423,0,2,445,432,H
2023-04-30T20:34:28Z,0ldaeete,serial-reaction-time,1,R,1,1,31,1423,0,2,218,322,L
2023-04-30T20:34:29Z,0ldaeete,serial-reaction-time,1,P,1,1,32,1423,0,3,486,223,H
2023-04-30T20:34:29Z,0ldaeete,serial-reaction-time,1,R,1,1,33,1423,0,1,301,231,L
2023-04-30T20:34:29Z,0ldaeete,serial-reaction-time,1,P,1,1,34,1423,0,1,230,311,H
2023-04-30T20:34:30Z,0ldaeete,serial-reaction-time,1,R,1,1,35,1423,0,1,303,111,R
2023-04-30T20:34:30Z,0ldaeete,serial-reaction-time,1,P,1,1,36,1423,0,4,541,114,H
2023-04-30T20:34:31Z,0ldaeete,serial-reaction-time,NA,R,1,1,37,1423,0,1,334,141,T
2023-04-30T20:34:31Z,0ldaeete,serial-reaction-time,1,R,1,0,37,1423,0,1,638,141,T
2023-04-30T20:34:32Z,0ldaeete,serial-reaction-time,1,P,1,1,38,1423,0,2,387,412,H
2023-04-30T20:34:32Z,0ldaeete,serial-reaction-time,1,R,1,1,39,1423,0,1,366,121,T
2023-04-30T20:34:33Z,0ldaeete,serial-reaction-time,1,P,1,1,40,1423,0,3,491,213,H
2023-04-30T20:34:33Z,0ldaeete,serial-reaction-time,1,R,1,1,41,1423,0,1,318,131,T
2023-04-30T20:34:34Z,0ldaeete,serial-reaction-time,1,P,1,1,42,1423,0,1,246,311,H
2023-04-30T20:34:34Z,0ldaeete,serial-reaction-time,1,R,1,1,43,1423,0,4,410,114,H
2023-04-30T20:34:35Z,0ldaeete,serial-reaction-time,1,P,1,1,44,1423,0,4,341,144,H
2023-04-30T20:34:35Z,0ldaeete,serial-reaction-time,1,R,1,1,45,1423,0,3,491,443,L
2023-04-30T20:34:36Z,0ldaeete,serial-reaction-time,1,P,1,1,46,1423,0,2,417,432,H
2023-04-30T20:34:36Z,0ldaeete,serial-reaction-time,1,R,1,1,47,1423,0,2,324,322,L
2023-04-30T20:34:37Z,0ldaeete,serial-reaction-time,1,P,1,1,48,1423,0,3,402,223,H
2023-04-30T20:34:37Z,0ldaeete,serial-reaction-time,1,R,1,1,49,1423,0,3,321,233,H
2023-04-30T20:34:38Z,0ldaeete,serial-reaction-time,1,P,1,1,50,1423,0,1,335,331,H
2023-04-30T20:34:38Z,0ldaeete,serial-reaction-time,NA,R,1,1,51,1423,0,4,221,314,L
2023-04-30T20:34:39Z,0ldaeete,serial-reaction-time,1,R,1,0,51,1423,0,4,534,314,L
2023-04-30T20:34:39Z,0ldaeete,serial-reaction-time,1,P,1,1,52,1423,0,4,406,144,H
2023-04-30T20:34:40Z,0ldaeete,serial-reaction-time,1,R,1,1,53,1423,0,1,518,441,L
2023-04-30T20:34:41Z,0ldaeete,serial-reaction-time,1,P,1,1,54,1423,0,2,593,412,H
2023-04-30T20:34:41Z,0ldaeete,serial-reaction-time,1,R,1,1,55,1423,0,2,296,122,L
2023-04-30T20:34:41Z,0ldaeete,serial-reaction-time,1,P,1,1,56,1423,0,3,382,223,H
2023-04-30T20:34:42Z,0ldaeete,serial-reaction-time,1,R,1,1,57,1423,0,1,390,231,L
2023-04-30T20:34:43Z,0ldaeete,serial-reaction-time,1,P,1,1,58,1423,0,1,405,311,H
2023-04-30T20:34:43Z,0ldaeete,serial-reaction-time,1,R,1,1,59,1423,0,2,546,112,L
2023-04-30T20:34:44Z,0ldaeete,serial-reaction-time,1,P,1,1,60,1423,0,4,562,124,H
2023-04-30T20:34:44Z,0ldaeete,serial-reaction-time,1,R,1,1,61,1423,0,4,381,244,L
2023-04-30T20:34:45Z,0ldaeete,serial-reaction-time,1,P,1,1,62,1423,0,2,429,442,H
2023-04-30T20:34:46Z,0ldaeete,serial-reaction-time,1,R,1,1,63,1423,0,3,462,423,L
2023-04-30T20:34:46Z,0ldaeete,serial-reaction-time,1,P,1,1,64,1423,0,3,262,233,H
2023-04-30T20:34:46Z,0ldaeete,serial-reaction-time,1,R,1,1,65,1423,0,3,316,333,R
2023-04-30T20:34:47Z,0ldaeete,serial-reaction-time,1,P,1,1,66,1423,0,1,323,331,H
2023-04-30T20:34:47Z,0ldaeete,serial-reaction-time,1,R,1,1,67,1423,0,1,304,311,H
2023-04-30T20:34:48Z,0ldaeete,serial-reaction-time,1,P,1,1,68,1423,0,4,587,114,H
2023-04-30T20:34:49Z,0ldaeete,serial-reaction-time,1,R,1,1,69,1423,0,1,493,141,T
2023-04-30T20:34:49Z,0ldaeete,serial-reaction-time,1,P,1,1,70,1423,0,2,395,412,H
2023-04-30T20:34:50Z,0ldaeete,serial-reaction-time,1,R,1,1,71,1423,0,4,432,124,H
2023-04-30T20:34:50Z,0ldaeete,serial-reaction-time,1,P,1,1,72,1423,0,3,373,243,H
2023-04-30T20:34:51Z,0ldaeete,serial-reaction-time,NA,R,1,1,73,1423,0,2,312,432,H
2023-04-30T20:34:51Z,0ldaeete,serial-reaction-time,1,R,1,0,73,1423,0,2,571,432,H
2023-04-30T20:34:52Z,0ldaeete,serial-reaction-time,1,P,1,1,74,1423,0,1,329,321,H
2023-04-30T20:34:52Z,0ldaeete,serial-reaction-time,NA,R,1,1,75,1423,0,2,398,212,T
2023-04-30T20:34:52Z,0ldaeete,serial-reaction-time,1,R,1,0,75,1423,0,2,433,212,T
2023-04-30T20:34:53Z,0ldaeete,serial-reaction-time,1,P,1,1,76,1423,0,4,456,124,H
2023-04-30T20:34:53Z,0ldaeete,serial-reaction-time,1,R,1,1,77,1423,0,2,448,242,T
2023-04-30T20:34:54Z,0ldaeete,serial-reaction-time,1,P,1,1,78,1423,0,2,333,422,H
2023-04-30T20:34:54Z,0ldaeete,serial-reaction-time,1,R,1,1,79,1423,0,1,375,221,L
2023-04-30T20:34:55Z,0ldaeete,serial-reaction-time,1,P,1,1,80,1423,0,3,406,213,H
2023-04-30T20:35:00Z,0ldaeete,html-keyboard-response,NA,NA,NA,NA,NA,NA,NA,NA,NA,NA,NA
2023-04-30T20:35:01Z,0ldaeete,html-keyboard-response,NA,NA,NA,NA,NA,NA,NA,NA,NA,NA,NA
2023-04-30T20:35:02Z,0ldaeete,serial-reaction-time,1,R,2,1,1,1423,0,4,422,4,X
2023-04-30T20:35:03Z,0ldaeete,serial-reaction-time,1,P,2,1,2,1423,0,1,420,41,X
2023-04-30T20:35:03Z,0ldaeete,serial-reaction-time,NA,R,2,1,3,1423,0,2,209,412,H
2023-04-30T20:35:03Z,0ldaeete,serial-reaction-time,1,R,2,0,3,1423,0,2,453,412,H
2023-04-30T20:35:04Z,0ldaeete,serial-reaction-time,1,P,2,1,4,1423,0,4,389,124,H
2023-04-30T20:35:05Z,0ldaeete,serial-reaction-time,1,R,2,1,5,1423,0,3,359,243,H
2023-04-30T20:35:05Z,0ldaeete,serial-reaction-time,1,P,2,1,6,1423,0,2,396,432,H
2023-04-30T20:35:06Z,0ldaeete,serial-reaction-time,1,R,2,1,7,1423,0,3,329,323,T
2023-04-30T20:35:06Z,0ldaeete,serial-reaction-time,1,P,2,1,8,1423,0,3,334,233,H
2023-04-30T20:35:06Z,0ldaeete,serial-reaction-time,1,R,2,1,9,1423,0,3,277,333,R
2023-04-30T20:35:07Z,0ldaeete,serial-reaction-time,1,P,2,1,10,1423,0,1,417,331,H
2023-04-30T20:35:08Z,0ldaeete,serial-reaction-time,1,R,2,1,11,1423,0,3,403,313,T
2023-04-30T20:35:08Z,0ldaeete,serial-reaction-time,1,P,2,1,12,1423,0,4,463,134,H
2023-04-30T20:35:09Z,0ldaeete,serial-reaction-time,1,R,2,1,13,1423,0,2,479,342,L
2023-04-30T20:35:09Z,0ldaeete,serial-reaction-time,1,P,2,1,14,1423,0,2,365,422,H
2023-04-30T20:35:10Z,0ldaeete,serial-reaction-time,1,R,2,1,15,1423,0,3,417,223,H
2023-04-30T20:35:10Z,0ldaeete,serial-reaction-time,1,P,2,1,16,1423,0,3,308,233,H
2023-04-30T20:35:11Z,0ldaeete,serial-reaction-time,1,R,2,1,17,1423,0,3,315,333,R
2023-04-30T20:35:11Z,0ldaeete,serial-reaction-time,1,P,2,1,18,1423,0,1,340,331,H
2023-04-30T20:35:12Z,0ldaeete,serial-reaction-time,1,R,2,1,19,1423,0,3,372,313,T
2023-04-30T20:35:12Z,0ldaeete,serial-reaction-time,1,P,2,1,20,1423,0,4,493,134,H
2023-04-30T20:35:13Z,0ldaeete,serial-reaction-time,1,R,2,1,21,1423,0,4,464,344,L
2023-04-30T20:35:14Z,0ldaeete,serial-reaction-time,1,P,2,1,22,1423,0,2,453,442,H
2023-04-30T20:35:14Z,0ldaeete,serial-reaction-time,NA,R,2,1,23,1423,0,3,372,423,L
2023-04-30T20:35:14Z,0ldaeete,serial-reaction-time,1,R,2,0,23,1423,0,3,625,423,L
2023-04-30T20:35:15Z,0ldaeete,serial-reaction-time,1,P,2,1,24,1423,0,3,335,233,H
2023-04-30T20:35:15Z,0ldaeete,serial-reaction-time,1,R,2,1,25,1423,0,3,343,333,R
2023-04-30T20:35:16Z,0ldaeete,serial-reaction-time,1,P,2,1,26,1423,0,1,377,331,H
2023-04-30T20:35:16Z,0ldaeete,serial-reaction-time,1,R,2,1,27,1423,0,1,337,311,H
2023-04-30T20:35:17Z,0ldaeete,serial-reaction-time,1,P,2,1,28,1423,0,4,467,114,H
2023-04-30T20:35:17Z,0ldaeete,serial-reaction-time,1,R,2,1,29,1423,0,2,408,142,L
2023-04-30T20:35:18Z,0ldaeete,serial-reaction-time,1,P,2,1,30,1423,0,2,358,422,H
2023-04-30T20:35:19Z,0ldaeete,serial-reaction-time,1,R,2,1,31,1423,0,4,500,224,L
2023-04-30T20:35:19Z,0ldaeete,serial-reaction-time,1,P,2,1,32,1423,0,3,436,243,H
2023-04-30T20:35:20Z,0ldaeete,serial-reaction-time,1,R,2,1,33,1423,0,1,388,431,L
2023-04-30T20:35:20Z,0ldaeete,serial-reaction-time,1,P,2,1,34,1423,0,1,324,311,H
2023-04-30T20:35:20Z,0ldaeete,serial-reaction-time,NA,R,2,1,35,1423,0,2,156,112,L
2023-04-30T20:35:21Z,0ldaeete,serial-reaction-time,1,R,2,0,35,1423,0,2,422,112,L
2023-04-30T20:35:21Z,0ldaeete,serial-reaction-time,1,P,2,1,36,1423,0,4,638,124,H
2023-04-30T20:35:22Z,0ldaeete,serial-reaction-time,1,R,2,1,37,1423,0,3,488,243,H
2023-04-30T20:35:23Z,0ldaeete,serial-reaction-time,1,P,2,1,38,1423,0,2,530,432,H
2023-04-30T20:35:23Z,0ldaeete,serial-reaction-time,1,R,2,1,39,1423,0,2,356,322,L
2023-04-30T20:35:24Z,0ldaeete,serial-reaction-time,1,P,2,1,40,1423,0,3,579,223,H
2023-04-30T20:35:24Z,0ldaeete,serial-reaction-time,1,R,2,1,41,1423,0,3,315,233,H
2023-04-30T20:35:25Z,0ldaeete,serial-reaction-time,1,P,2,1,42,1423,0,1,392,331,H
2023-04-30T20:35:26Z,0ldaeete,serial-reaction-time,1,R,2,1,43,1423,0,4,508,314,L
2023-04-30T20:35:26Z,0ldaeete,serial-reaction-time,1,P,2,1,44,1423,0,4,390,144,H
2023-04-30T20:35:27Z,0ldaeete,serial-reaction-time,1,R,2,1,45,1423,0,2,433,442,H
2023-04-30T20:35:27Z,0ldaeete,serial-reaction-time,1,P,2,1,46,1423,0,2,347,422,H
2023-04-30T20:35:28Z,0ldaeete,serial-reaction-time,1,R,2,1,47,1423,0,4,490,224,L
2023-04-30T20:35:29Z,0ldaeete,serial-reaction-time,1,P,2,1,48,1423,0,3,605,243,H
2023-04-30T20:35:29Z,0ldaeete,serial-reaction-time,1,R,2,1,49,1423,0,4,590,434,T
2023-04-30T20:35:30Z,0ldaeete,serial-reaction-time,1,P,2,1,50,1423,0,1,571,341,H
2023-04-30T20:35:31Z,0ldaeete,serial-reaction-time,1,R,2,1,51,1423,0,2,445,412,H
2023-04-30T20:35:31Z,0ldaeete,serial-reaction-time,1,P,2,1,52,1423,0,4,469,124,H
2023-04-30T20:35:32Z,0ldaeete,serial-reaction-time,1,R,2,1,53,1423,0,4,472,244,L
2023-04-30T20:35:32Z,0ldaeete,serial-reaction-time,1,P,2,1,54,1423,0,2,448,442,H
2023-04-30T20:35:33Z,0ldaeete,serial-reaction-time,1,R,2,1,55,1423,0,4,794,424,T
2023-04-30T20:35:34Z,0ldaeete,serial-reaction-time,NA,P,2,1,56,1423,0,3,261,243,H
2023-04-30T20:35:34Z,0ldaeete,serial-reaction-time,1,P,2,0,56,1423,0,3,590,243,H
2023-04-30T20:35:35Z,0ldaeete,serial-reaction-time,1,R,2,1,57,1423,0,2,522,432,H
2023-04-30T20:35:35Z,0ldaeete,serial-reaction-time,1,P,2,1,58,1423,0,1,486,321,H
2023-04-30T20:35:36Z,0ldaeete,serial-reaction-time,1,R,2,1,59,1423,0,4,597,214,L
2023-04-30T20:35:37Z,0ldaeete,serial-reaction-time,1,P,2,1,60,1423,0,4,412,144,H
2023-04-30T20:35:37Z,0ldaeete,serial-reaction-time,1,R,2,1,61,1423,0,4,461,444,R
2023-04-30T20:35:38Z,0ldaeete,serial-reaction-time,1,P,2,1,62,1423,0,2,505,442,H
2023-04-30T20:35:38Z,0ldaeete,serial-reaction-time,1,R,2,1,63,1423,0,3,386,423,L
2023-04-30T20:35:39Z,0ldaeete,serial-reaction-time,1,P,2,1,64,1423,0,3,325,233,H
2023-04-30T20:35:39Z,0ldaeete,serial-reaction-time,1,R,2,1,65,1423,0,3,305,333,R
2023-04-30T20:35:40Z,0ldaeete,serial-reaction-time,1,P,2,1,66,1423,0,1,482,331,H
2023-04-30T20:35:40Z,0ldaeete,serial-reaction-time,1,R,2,1,67,1423,0,1,237,311,H
2023-04-30T20:35:41Z,0ldaeete,serial-reaction-time,1,P,2,1,68,1423,0,4,513,114,H
2023-04-30T20:35:42Z,0ldaeete,serial-reaction-time,1,R,2,1,69,1423,0,1,463,141,T
2023-04-30T20:35:42Z,0ldaeete,serial-reaction-time,1,P,2,1,70,1423,0,2,499,412,H
2023-04-30T20:35:43Z,0ldaeete,serial-reaction-time,1,R,2,1,71,1423,0,3,442,123,L
2023-04-30T20:35:43Z,0ldaeete,serial-reaction-time,1,P,2,1,72,1423,0,3,352,233,H
2023-04-30T20:35:44Z,0ldaeete,serial-reaction-time,1,R,2,1,73,1423,0,3,255,333,R
2023-04-30T20:35:44Z,0ldaeete,serial-reaction-time,1,P,2,1,74,1423,0,1,335,331,H
2023-04-30T20:35:45Z,0ldaeete,serial-reaction-time,1,R,2,1,75,1423,0,2,420,312,L
2023-04-30T20:35:45Z,0ldaeete,serial-reaction-time,1,P,2,1,76,1423,0,4,456,124,H
2023-04-30T20:35:46Z,0ldaeete,serial-reaction-time,1,R,2,1,77,1423,0,3,514,243,H
2023-04-30T20:35:47Z,0ldaeete,serial-reaction-time,1,P,2,1,78,1423,0,2,436,432,H
2023-04-30T20:35:47Z,0ldaeete,serial-reaction-time,1,R,2,1,79,1423,0,4,543,324,L
2023-04-30T20:35:48Z,0ldaeete,serial-reaction-time,1,P,2,1,80,1423,0,3,497,243,H
2023-04-30T20:35:53Z,0ldaeete,html-keyboard-response,NA,NA,NA,NA,NA,NA,NA,NA,NA,NA,NA
2023-04-30T20:35:57Z,0ldaeete,html-keyboard-response,NA,NA,NA,NA,NA,NA,NA,NA,NA,NA,NA
2023-04-30T20:35:59Z,0ldaeete,serial-reaction-time,1,R,3,1,1,1423,0,3,523,3,X
2023-04-30T20:35:59Z,0ldaeete,serial-reaction-time,1,P,3,1,2,1423,0,1,385,31,X
2023-04-30T20:36:00Z,0ldaeete,serial-reaction-time,1,R,3,1,3,1423,0,4,522,314,L
2023-04-30T20:36:00Z,0ldaeete,serial-reaction-time,1,P,3,1,4,1423,0,4,86,144,H
2023-04-30T20:36:00Z,0ldaeete,serial-reaction-time,NA,R,3,1,5,1423,0,3,70,443,L
2023-04-30T20:36:01Z,0ldaeete,serial-reaction-time,1,R,3,0,5,1423,0,3,420,443,L
2023-04-30T20:36:01Z,0ldaeete,serial-reaction-time,1,P,3,1,6,1423,0,2,384,432,H
