datetime,id,trial_type,correct,p_or_r,block,first_response,trial_number,sequence,is_practice,correct_pos,cumulative_rt,actual_triplet,triplet_type
2023-04-14T23:20:10Z,qt76109e,fullscreen,NA,NA,NA,NA,NA,NA,NA,NA,NA,NA,NA
2023-04-14T23:20:13Z,qt76109e,html-keyboard-response,NA,NA,NA,NA,NA,NA,NA,NA,NA,NA,NA
2023-04-14T23:20:15Z,qt76109e,serial-reaction-time,1,R,1,1,1,2341,0,3,1099.1999999955297,3,X
2023-04-14T23:20:16Z,qt76109e,serial-reaction-time,1,P,1,1,2,2341,0,2,379.5,32,X
2023-04-14T23:20:16Z,qt76109e,serial-reaction-time,1,R,1,1,3,2341,0,1,458.5,321,L
2023-04-14T23:20:17Z,qt76109e,serial-reaction-time,1,P,1,1,4,2341,0,3,411.5,213,H
2023-04-14T23:20:17Z,qt76109e,serial-reaction-time,1,R,1,1,5,2341,0,3,308.30000000447035,133,L
2023-04-14T23:20:18Z,qt76109e,serial-reaction-time,1,P,1,1,6,2341,0,4,405.8999999985099,334,H
2023-04-14T23:20:18Z,qt76109e,serial-reaction-time,1,R,1,1,7,2341,0,3,415.8999999985099,343,T
2023-04-14T23:20:19Z,qt76109e,serial-reaction-time,1,P,1,1,8,2341,0,1,533.6999999955297,431,H
2023-04-14T23:20:20Z,qt76109e,serial-reaction-time,1,R,1,1,9,2341,0,4,409.3999999985099,314,H
2023-04-14T23:20:20Z,qt76109e,serial-reaction-time,1,P,1,1,10,2341,0,2,629.1000000014901,142,H
2023-04-14T23:20:21Z,qt76109e,serial-reaction-time,1,R,1,1,11,2341,0,1,422.69999999552965,421,H
2023-04-14T23:20:22Z,qt76109e,serial-reaction-time,1,P,1,1,12,2341,0,3,411.20000000298023,213,H
2023-04-14T23:20:22Z,qt76109e,serial-reaction-time,1,R,1,1,13,2341,0,2,576.1000000014901,132,H
2023-04-14T23:20:23Z,qt76109e,serial-reaction-time,1,P,1,1,14,2341,0,4,422.1000000014901,324,H
2023-04-14T23:20:23Z,qt76109e,serial-reaction-time,NA,R,1,1,15,2341,0,3,492.3999999985099,243,H
2023-04-14T23:20:24Z,qt76109e,serial-reaction-time,1,R,1,0,15,2341,0,3,816.9999999925494,243,H
2023-04-14T23:20:24Z,qt76109e,serial-reaction-time,1,P,1,1,16,2341,0,1,460,431,H
2023-04-14T23:20:25Z,qt76109e,serial-reaction-time,1,R,1,1,17,2341,0,3,339.29999999701977,313,T
2023-04-14T23:20:26Z,qt76109e,serial-reaction-time,1,P,1,1,18,2341,0,2,470.5,132,H
2023-04-14T23:20:26Z,qt76109e,serial-reaction-time,1,R,1,1,19,2341,0,2,401.69999999552965,322,L
2023-04-14T23:20:27Z,qt76109e,serial-reaction-time,1,P,1,1,20,2341,0,3,367.8999999985099,223,H
2023-04-14T23:20:27Z,qt76109e,serial-reaction-time,1,R,1,1,21,2341,0,1,502.6000000014901,231,L
2023-04-14T23:20:28Z,qt76109e,serial-reaction-time,1,P,1,1,22,2341,0,4,406.79999999701977,314,H
2023-04-14T23:20:28Z,qt76109e,serial-reaction-time,1,R,1,1,23,2341,0,3,370.6000000014901,143,L
2023-04-14T23:20:29Z,qt76109e,serial-reaction-time,1,P,1,1,24,2341,0,1,416.20000000298023,431,H
2023-04-14T23:20:30Z,qt76109e,serial-reaction-time,NA,R,1,1,25,2341,0,2,667.2000000029802,312,L
2023-04-14T23:20:30Z,qt76109e,serial-reaction-time,1,R,1,0,25,2341,0,2,725.2000000029802,312,L
2023-04-14T23:20:30Z,qt76109e,serial-reaction-time,1,P,1,1,26,2341,0,2,526.6000000014901,122,H
2023-04-14T23:20:31Z,qt76109e,serial-reaction-time,1,R,1,1,27,2341,0,4,514.1999999955297,224,L
2023-04-14T23:20:32Z,qt76109e,serial-reaction-time,1,P,1,1,28,2341,0,3,464.90000000596046,243,H
2023-04-14T23:20:32Z,qt76109e,serial-reaction-time,1,R,1,1,29,2341,0,1,502.3999999985099,431,H
2023-04-14T23:20:33Z,qt76109e,serial-reaction-time,1,P,1,1,30,2341,0,4,439,314,H
2023-04-14T23:20:33Z,qt76109e,serial-reaction-time,1,R,1,1,31,2341,0,4,472.6000000014901,144,L
2023-04-14T23:20:34Z,qt76109e,serial-reaction-time,1,P,1,1,32,2341,0,1,412.8999999985099,441,H
2023-04-14T23:20:35Z,qt76109e,serial-reaction-time,1,R,1,1,33,2341,0,3,824.3999999985099,413,L
2023-04-14T23:20:36Z,qt76109e,serial-reaction-time,1,P,1,1,34,2341,0,2,547.6000000014901,132,H
2023-04-14T23:20:36Z,qt76109e,serial-reaction-time,1,R,1,1,35,2341,0,2,342.5,322,L
2023-04-14T23:20:37Z,qt76109e,serial-reaction-time,1,P,1,1,36,2341,0,3,940.10000000149,223,H
2023-04-14T23:20:38Z,qt76109e,serial-reaction-time,1,R,1,1,37,2341,0,2,495.79999999701977,232,T
2023-04-14T23:20:38Z,qt76109e,serial-reaction-time,1,P,1,1,38,2341,0,4,341.79999999701977,324,H
2023-04-14T23:20:39Z,qt76109e,serial-reaction-time,1,R,1,1,39,2341,0,4,338.5,244,L
2023-04-14T23:20:39Z,qt76109e,serial-reaction-time,1,P,1,1,40,2341,0,1,449.8999999985099,441,H
2023-04-14T23:20:40Z,qt76109e,serial-reaction-time,1,R,1,1,41,2341,0,4,457,414,T
2023-04-14T23:20:41Z,qt76109e,serial-reaction-time,1,P,1,1,42,2341,0,2,522.5999999940395,142,H
2023-04-14T23:20:41Z,qt76109e,serial-reaction-time,1,R,1,1,43,2341,0,4,412.5,424,T
2023-04-14T23:20:42Z,qt76109e,serial-reaction-time,1,P,1,1,44,2341,0,3,495.1000000014901,243,H
2023-04-14T23:20:42Z,qt76109e,serial-reaction-time,1,R,1,1,45,2341,0,2,476.3999999985099,432,L
2023-04-14T23:20:43Z,qt76109e,serial-reaction-time,1,P,1,1,46,2341,0,4,392.79999999701977,324,H
2023-04-14T23:20:43Z,qt76109e,serial-reaction-time,1,R,1,1,47,2341,0,2,420.69999999552965,242,T
2023-04-14T23:20:44Z,qt76109e,serial-reaction-time,1,P,1,1,48,2341,0,1,495.1000000014901,421,H
2023-04-14T23:20:45Z,qt76109e,serial-reaction-time,1,R,1,1,49,2341,0,2,499.1000000014901,212,T
2023-04-14T23:20:45Z,qt76109e,serial-reaction-time,NA,P,1,1,50,2341,0,2,373.1000000014901,122,H
2023-04-14T23:20:46Z,qt76109e,serial-reaction-time,1,P,1,0,50,2341,0,2,774.2999999970198,122,H
2023-04-14T23:20:46Z,qt76109e,serial-reaction-time,1,R,1,1,51,2341,0,2,326.70000000298023,222,R
2023-04-14T23:20:47Z,qt76109e,serial-reaction-time,1,P,1,1,52,2341,0,3,447.69999999552965,223,H
2023-04-14T23:20:47Z,qt76109e,serial-reaction-time,1,R,1,1,53,2341,0,4,432.8999999985099,234,L
2023-04-14T23:20:48Z,qt76109e,serial-reaction-time,1,P,1,1,54,2341,0,4,458.70000000298023,344,H
2023-04-14T23:20:48Z,qt76109e,serial-reaction-time,1,R,1,1,55,2341,0,3,480.1000000014901,443,L
2023-04-14T23:20:50Z,qt76109e,serial-reaction-time,1,P,1,1,56,2341,0,1,1292.1999999955297,431,H
2023-04-14T23:20:50Z,qt76109e,serial-reaction-time,1,R,1,1,57,2341,0,1,335.8999999985099,311,L
2023-04-14T23:20:51Z,qt76109e,serial-reaction-time,1,P,1,1,58,2341,0,2,483.5,112,H
2023-04-14T23:20:51Z,qt76109e,serial-reaction-time,1,R,1,1,59,2341,0,4,373.5,124,L
2023-04-14T23:20:52Z,qt76109e,serial-reaction-time,NA,P,1,1,60,2341,0,3,461.1000000014901,243,H
2023-04-14T23:20:52Z,qt76109e,serial-reaction-time,1,P,1,0,60,2341,0,3,522,243,H
2023-04-14T23:20:53Z,qt76109e,serial-reaction-time,1,R,1,1,61,2341,0,3,507.8999999985099,433,L
2023-04-14T23:20:53Z,qt76109e,serial-reaction-time,1,P,1,1,62,2341,0,4,403.59999999403954,334,H
2023-04-14T23:20:55Z,qt76109e,serial-reaction-time,NA,R,1,1,63,2341,0,1,2062.8000000044703,341,L
2023-04-14T23:20:56Z,qt76109e,serial-reaction-time,1,R,1,0,63,2341,0,1,2416.5000000074506,341,L
2023-04-14T23:20:56Z,qt76109e,serial-reaction-time,1,P,1,1,64,2341,0,1,327,411,H
2023-04-14T23:20:57Z,qt76109e,serial-reaction-time,1,R,1,1,65,2341,0,2,447.20000000298023,112,H
2023-04-14T23:20:57Z,qt76109e,serial-reaction-time,1,P,1,1,66,2341,0,2,297,122,H
2023-04-14T23:20:58Z,qt76109e,serial-reaction-time,1,R,1,1,67,2341,0,2,305.8999999985099,222,R
2023-04-14T23:20:58Z,qt76109e,serial-reaction-time,1,P,1,1,68,2341,0,3,423.6000000014901,223,H
2023-04-14T23:20:59Z,qt76109e,serial-reaction-time,1,R,1,1,69,2341,0,4,400,234,L
2023-04-14T23:20:59Z,qt76109e,serial-reaction-time,1,P,1,1,70,2341,0,4,338.1000000014901,344,H
2023-04-14T23:21:00Z,qt76109e,serial-reaction-time,1,R,1,1,71,2341,0,2,453.8999999985099,442,L
2023-04-14T23:21:01Z,qt76109e,serial-reaction-time,1,P,1,1,72,2341,0,1,715.1999999955297,421,H
2023-04-14T23:21:02Z,qt76109e,serial-reaction-time,1,R,1,1,73,2341,0,3,758.5,213,H
2023-04-14T23:21:02Z,qt76109e,serial-reaction-time,NA,P,1,1,74,2341,0,2,682.1000000014901,132,H
2023-04-14T23:21:03Z,qt76109e,serial-reaction-time,1,P,1,0,74,2341,0,2,1154.8000000044703,132,H
2023-04-14T23:21:05Z,qt76109e,serial-reaction-time,1,R,1,1,75,2341,0,1,2436.5999999940395,321,L
2023-04-14T23:21:07Z,qt76109e,serial-reaction-time,1,P,1,1,76,2341,0,3,1008.8000000044703,213,H
2023-04-14T23:21:07Z,qt76109e,serial-reaction-time,1,R,1,1,77,2341,0,1,720.3999999985099,131,T
2023-04-14T23:21:08Z,qt76109e,serial-reaction-time,1,P,1,1,78,2341,0,4,605.9000000059605,314,H
2023-04-14T23:21:09Z,qt76109e,serial-reaction-time,1,R,1,1,79,2341,0,4,630.5,144,L
2023-04-14T23:21:09Z,qt76109e,serial-reaction-time,1,P,1,1,80,2341,0,1,405.30000000447035,441,H
2023-04-14T23:21:15Z,qt76109e,html-keyboard-response,NA,NA,NA,NA,NA,NA,NA,NA,NA,NA,NA
2023-04-14T23:21:19Z,qt76109e,html-keyboard-response,NA,NA,NA,NA,NA,NA,NA,NA,NA,NA,NA
2023-04-14T23:21:21Z,qt76109e,serial-reaction-time,1,R,2,1,1,2341,0,1,532.6000000014901,1,X
2023-04-14T23:21:21Z,qt76109e,serial-reaction-time,1,P,2,1,2,2341,0,2,370.5,12,X
2023-04-14T23:21:22Z,qt76109e,serial-reaction-time,1,R,2,1,3,2341,0,2,326.5,122,H
2023-04-14T23:21:22Z,qt76109e,serial-reaction-time,1,P,2,1,4,2341,0,3,381.1000000014901,223,H
2023-04-14T23:21:23Z,qt76109e,serial-reaction-time,1,R,2,1,5,2341,0,1,369,231,L
2023-04-14T23:21:23Z,qt76109e,serial-reaction-time,1,P,2,1,6,2341,0,4,352.6000000014901,314,H
2023-04-14T23:21:24Z,qt76109e,serial-reaction-time,1,R,2,1,7,2341,0,3,380.5,143,L
2023-04-14T23:21:24Z,qt76109e,serial-reaction-time,1,P,2,1,8,2341,0,1,481.1000000014901,431,H
2023-04-14T23:21:25Z,qt76109e,serial-reaction-time,1,R,2,1,9,2341,0,3,381.79999999701977,313,T
2023-04-14T23:21:26Z,qt76109e,serial-reaction-time,1,P,2,1,10,2341,0,2,573,132,H
2023-04-14T23:21:26Z,qt76109e,serial-reaction-time,1,R,2,1,11,2341,0,3,462.5,323,T
2023-04-14T23:21:27Z,qt76109e,serial-reaction-time,1,P,2,1,12,2341,0,3,389.20000000298023,233,H
2023-04-14T23:21:27Z,qt76109e,serial-reaction-time,1,R,2,1,13,2341,0,4,434.8999999985099,334,H
2023-04-14T23:21:28Z,qt76109e,serial-reaction-time,1,P,2,1,14,2341,0,4,303.19999999552965,344,H
2023-04-14T23:21:28Z,qt76109e,serial-reaction-time,1,R,2,1,15,2341,0,3,446.70000000298023,443,L
2023-04-14T23:21:29Z,qt76109e,serial-reaction-time,1,P,2,1,16,2341,0,1,558.8000000044703,431,H
2023-04-14T23:21:30Z,qt76109e,serial-reaction-time,1,R,2,1,17,2341,0,3,579.8999999985099,313,T
2023-04-14T23:21:31Z,qt76109e,serial-reaction-time,1,P,2,1,18,2341,0,2,969.39999999851,132,H
2023-04-14T23:21:31Z,qt76109e,serial-reaction-time,1,R,2,1,19,2341,0,2,336.59999999403954,322,L
2023-04-14T23:21:32Z,qt76109e,serial-reaction-time,1,P,2,1,20,2341,0,3,475.8999999985099,223,H
2023-04-14T23:21:32Z,qt76109e,serial-reaction-time,1,R,2,1,21,2341,0,3,419.69999999552965,233,H
2023-04-14T23:21:33Z,qt76109e,serial-reaction-time,1,P,2,1,22,2341,0,4,458.20000000298023,334,H
2023-04-14T23:21:34Z,qt76109e,serial-reaction-time,1,R,2,1,23,2341,0,1,517.2999999970198,341,L
2023-04-14T23:21:34Z,qt76109e,serial-reaction-time,1,P,2,1,24,2341,0,1,361.1000000014901,411,H
2023-04-14T23:21:35Z,qt76109e,serial-reaction-time,1,R,2,1,25,2341,0,3,348.8999999985099,113,L
2023-04-14T23:21:35Z,qt76109e,serial-reaction-time,1,P,2,1,26,2341,0,2,538.5,132,H
2023-04-14T23:21:36Z,qt76109e,serial-reaction-time,1,R,2,1,27,2341,0,3,443.30000000447035,323,T
2023-04-14T23:21:36Z,qt76109e,serial-reaction-time,1,P,2,1,28,2341,0,3,420.8999999985099,233,H
2023-04-14T23:21:37Z,qt76109e,serial-reaction-time,1,R,2,1,29,2341,0,1,440.1000000014901,331,L
2023-04-14T23:21:38Z,qt76109e,serial-reaction-time,1,P,2,1,30,2341,0,4,373.40000000596046,314,H
2023-04-14T23:21:38Z,qt76109e,serial-reaction-time,1,R,2,1,31,2341,0,2,459.8999999985099,142,H
2023-04-14T23:21:39Z,qt76109e,serial-reaction-time,1,P,2,1,32,2341,0,1,467,421,H
2023-04-14T23:21:39Z,qt76109e,serial-reaction-time,1,R,2,1,33,2341,0,3,543,213,H
2023-04-14T23:21:40Z,qt76109e,serial-reaction-time,1,P,2,1,34,2341,0,2,539.6000000014901,132,H
2023-04-14T23:21:41Z,qt76109e,serial-reaction-time,NA,R,2,1,35,2341,0,4,392.19999999552965,324,H
2023-04-14T23:21:41Z,qt76109e,serial-reaction-time,1,R,2,0,35,2341,0,4,699.5999999940395,324,H
2023-04-14T23:21:41Z,qt76109e,serial-reaction-time,NA,P,2,1,36,2341,0,3,399.1000000014901,243,H
2023-04-14T23:21:42Z,qt76109e,serial-reaction-time,1,P,2,0,36,2341,0,3,469.5,243,H
2023-04-14T23:21:42Z,qt76109e,serial-reaction-time,1,R,2,1,37,2341,0,3,366.69999999552965,433,L
2023-04-14T23:21:43Z,qt76109e,serial-reaction-time,1,P,2,1,38,2341,0,4,426,334,H
2023-04-14T23:21:43Z,qt76109e,serial-reaction-time,1,R,2,1,39,2341,0,4,340.59999999403954,344,H
2023-04-14T23:21:44Z,qt76109e,serial-reaction-time,1,P,2,1,40,2341,0,1,469.3999999985099,441,H
2023-04-14T23:21:44Z,qt76109e,serial-reaction-time,1,R,2,1,41,2341,0,1,277.90000000596046,411,H
2023-04-14T23:21:45Z,qt76109e,serial-reaction-time,1,P,2,1,42,2341,0,2,431.70000000298023,112,H
2023-04-14T23:21:45Z,qt76109e,serial-reaction-time,1,R,2,1,43,2341,0,3,521.5,123,L
2023-04-14T23:21:46Z,qt76109e,serial-reaction-time,1,P,2,1,44,2341,0,3,426.80000000447035,233,H
2023-04-14T23:21:47Z,qt76109e,serial-reaction-time,1,R,2,1,45,2341,0,3,713.1999999955297,333,R
2023-04-14T23:21:47Z,qt76109e,serial-reaction-time,1,P,2,1,46,2341,0,4,377.59999999403954,334,H
2023-04-14T23:21:48Z,qt76109e,serial-reaction-time,1,R,2,1,47,2341,0,2,459.80000000447035,342,L
2023-04-14T23:21:48Z,qt76109e,serial-reaction-time,1,P,2,1,48,2341,0,1,501.3999999985099,421,H
2023-04-14T23:21:49Z,qt76109e,serial-reaction-time,1,R,2,1,49,2341,0,3,431.69999999552965,213,H
2023-04-14T23:21:49Z,qt76109e,serial-reaction-time,NA,P,2,1,50,2341,0,2,317.20000000298023,132,H
2023-04-14T23:21:50Z,qt76109e,serial-reaction-time,1,P,2,0,50,2341,0,2,566.6000000014901,132,H
2023-04-14T23:21:50Z,qt76109e,serial-reaction-time,1,R,2,1,51,2341,0,2,417.69999999552965,322,L
2023-04-14T23:21:51Z,qt76109e,serial-reaction-time,1,P,2,1,52,2341,0,3,429.79999999701977,223,H
2023-04-14T23:21:51Z,qt76109e,serial-reaction-time,1,R,2,1,53,2341,0,4,385.8999999985099,234,L
2023-04-14T23:21:52Z,qt76109e,serial-reaction-time,1,P,2,1,54,2341,0,4,316.5,344,H
2023-04-14T23:21:52Z,qt76109e,serial-reaction-time,1,R,2,1,55,2341,0,3,325.30000000447035,443,L
2023-04-14T23:21:53Z,qt76109e,serial-reaction-time,NA,P,2,1,56,2341,0,1,392.5,431,H
2023-04-14T23:21:53Z,qt76109e,serial-reaction-time,1,P,2,0,56,2341,0,1,417.6000000014901,431,H
2023-04-14T23:21:53Z,qt76109e,serial-reaction-time,1,R,2,1,57,2341,0,1,336.5,311,L
2023-04-14T23:21:54Z,qt76109e,serial-reaction-time,1,P,2,1,58,2341,0,2,454.5,112,H
2023-04-14T23:21:54Z,qt76109e,serial-reaction-time,1,R,2,1,59,2341,0,4,418.29999999701977,124,L
2023-04-14T23:21:55Z,qt76109e,serial-reaction-time,1,P,2,1,60,2341,0,3,393.5,243,H
2023-04-14T23:21:56Z,qt76109e,serial-reaction-time,1,R,2,1,61,2341,0,4,546.6000000014901,434,T
2023-04-14T23:21:56Z,qt76109e,serial-reaction-time,1,P,2,1,62,2341,0,4,438.79999999701977,344,H
2023-04-14T23:21:57Z,qt76109e,serial-reaction-time,1,R,2,1,63,2341,0,2,422.1000000014901,442,L
2023-04-14T23:21:57Z,qt76109e,serial-reaction-time,1,P,2,1,64,2341,0,1,512,421,H
2023-04-14T23:21:58Z,qt76109e,serial-reaction-time,1,R,2,1,65,2341,0,1,379.19999999552965,211,L
2023-04-14T23:21:58Z,qt76109e,serial-reaction-time,1,P,2,1,66,2341,0,2,451.29999999701977,112,H
2023-04-14T23:21:59Z,qt76109e,serial-reaction-time,1,R,2,1,67,2341,0,3,444.8999999985099,123,L
2023-04-14T23:21:59Z,qt76109e,serial-reaction-time,1,P,2,1,68,2341,0,3,274.70000000298023,233,H
2023-04-14T23:22:00Z,qt76109e,serial-reaction-time,1,R,2,1,69,2341,0,4,381.19999999552965,334,H
2023-04-14T23:22:00Z,qt76109e,serial-reaction-time,1,P,2,1,70,2341,0,4,379.8999999985099,344,H
2023-04-14T23:22:01Z,qt76109e,serial-reaction-time,1,R,2,1,71,2341,0,3,475.5,443,L
2023-04-14T23:22:02Z,qt76109e,serial-reaction-time,1,P,2,1,72,2341,0,1,637.5,431,H
2023-04-14T23:22:02Z,qt76109e,serial-reaction-time,1,R,2,1,73,2341,0,1,433,311,L
2023-04-14T23:22:03Z,qt76109e,serial-reaction-time,1,P,2,1,74,2341,0,2,393.69999999552965,112,H
2023-04-14T23:22:03Z,qt76109e,serial-reaction-time,1,R,2,1,75,2341,0,1,385,121,T
2023-04-14T23:22:04Z,qt76109e,serial-reaction-time,1,P,2,1,76,2341,0,3,418,213,H
2023-04-14T23:22:05Z,qt76109e,serial-reaction-time,1,R,2,1,77,2341,0,2,593.6000000014901,132,H
2023-04-14T23:22:05Z,qt76109e,serial-reaction-time,1,P,2,1,78,2341,0,4,428.3999999985099,324,H
2023-04-14T23:22:06Z,qt76109e,serial-reaction-time,1,R,2,1,79,2341,0,3,384.1000000014901,243,H
2023-04-14T23:22:06Z,qt76109e,serial-reaction-time,1,P,2,1,80,2341,0,1,441,431,H
2023-04-14T23:22:11Z,qt76109e,html-keyboard-response,NA,NA,NA,NA,NA,NA,NA,NA,NA,NA,NA
2023-04-14T23:23:39Z,qt76109e,html-keyboard-response,NA,NA,NA,NA,NA,NA,NA,NA,NA,NA,NA
2023-04-14T23:23:40Z,qt76109e,serial-reaction-time,1,R,3,1,1,2341,0,3,425.3999999985099,3,X
2023-04-14T23:23:41Z,qt76109e,serial-reaction-time,1,P,3,1,2,2341,0,2,383.8999999985099,32,X
2023-04-14T23:23:41Z,qt76109e,serial-reaction-time,NA,R,3,1,3,2341,0,1,293.8999999985099,321,L
2023-04-14T23:23:41Z,qt76109e,serial-reaction-time,1,R,3,0,3,2341,0,1,436.5,321,L
2023-04-14T23:23:42Z,qt76109e,serial-reaction-time,1,P,3,1,4,2341,0,3,387.6000000014901,213,H
2023-04-14T23:23:42Z,qt76109e,serial-reaction-time,1,R,3,1,5,2341,0,4,422.5,134,L
2023-04-14T23:23:43Z,qt76109e,serial-reaction-time,1,P,3,1,6,2341,0,4,297,344,H
2023-04-14T23:23:43Z,qt76109e,serial-reaction-time,1,R,3,1,7,2341,0,1,360.20000000298023,441,H
2023-04-14T23:23:44Z,qt76109e,serial-reaction-time,1,P,3,1,8,2341,0,1,289.80000000447035,411,H
2023-04-14T23:23:44Z,qt76109e,serial-reaction-time,1,R,3,1,9,2341,0,1,320.79999999701977,111,R
2023-04-14T23:23:45Z,qt76109e,serial-reaction-time,NA,P,3,1,10,2341,0,2,399.29999999701977,112,H
2023-04-14T23:23:45Z,qt76109e,serial-reaction-time,1,P,3,0,10,2341,0,2,494.5,112,H
2023-04-14T23:23:45Z,qt76109e,serial-reaction-time,NA,R,3,1,11,2341,0,4,219.9000000059605,124,L
2023-04-14T23:23:45Z,qt76109e,serial-reaction-time,1,R,3,0,11,2341,0,4,421.70000000298023,124,L
2023-04-14T23:23:46Z,qt76109e,serial-reaction-time,NA,P,3,1,12,2341,0,3,244.5,243,H
2023-04-14T23:23:46Z,qt76109e,serial-reaction-time,1,P,3,0,12,2341,0,3,480.70000000298023,243,H
2023-04-14T23:23:46Z,qt76109e,serial-reaction-time,1,R,3,1,13,2341,0,3,272.40000000596046,433,L
2023-04-14T23:23:47Z,qt76109e,serial-reaction-time,1,P,3,1,14,2341,0,4,312.6000000014901,334,H
2023-04-14T23:23:47Z,qt76109e,serial-reaction-time,1,R,3,1,15,2341,0,1,437.1000000014901,341,L
2023-04-14T23:23:48Z,qt76109e,serial-reaction-time,1,P,3,1,16,2341,0,1,307.90000000596046,411,H
2023-04-14T23:23:48Z,qt76109e,serial-reaction-time,1,R,3,1,17,2341,0,2,328.1000000014901,112,H
2023-04-14T23:23:49Z,qt76109e,serial-reaction-time,1,P,3,1,18,2341,0,2,294.80000000447035,122,H
2023-04-14T23:23:49Z,qt76109e,serial-reaction-time,NA,R,3,1,19,2341,0,3,342.80000000447035,223,H
2023-04-14T23:23:49Z,qt76109e,serial-reaction-time,1,R,3,0,19,2341,0,3,605.5000000074506,223,H
2023-04-14T23:23:50Z,qt76109e,serial-reaction-time,1,P,3,1,20,2341,0,3,359.6000000014901,233,H
2023-04-14T23:23:50Z,qt76109e,serial-reaction-time,1,R,3,1,21,2341,0,2,428.19999999552965,332,L
2023-04-14T23:23:51Z,qt76109e,serial-reaction-time,1,P,3,1,22,2341,0,4,353.79999999701977,324,H
2023-04-14T23:23:51Z,qt76109e,serial-reaction-time,NA,R,3,1,23,2341,0,1,313,241,L
2023-04-14T23:23:52Z,qt76109e,serial-reaction-time,1,R,3,0,23,2341,0,1,468.79999999701977,241,L
2023-04-14T23:23:52Z,qt76109e,serial-reaction-time,1,P,3,1,24,2341,0,1,281.70000000298023,411,H
2023-04-14T23:23:53Z,qt76109e,serial-reaction-time,1,R,3,1,25,2341,0,1,517.2000000029802,111,R
2023-04-14T23:24:44Z,qt76109e,serial-reaction-time,1,P,3,1,26,2341,0,2,51299.09999999404,112,H
2023-04-14T23:24:45Z,qt76109e,serial-reaction-time,1,R,3,1,27,2341,0,3,421.29999999701977,123,L
2023-04-14T23:24:45Z,qt76109e,serial-reaction-time,1,P,3,1,28,2341,0,3,327.1000000014901,233,H
2023-04-14T23:24:46Z,qt76109e,serial-reaction-time,1,R,3,1,29,2341,0,2,447,332,L
2023-04-14T23:24:46Z,qt76109e,serial-reaction-time,NA,P,3,1,30,2341,0,4,434.29999999701977,324,H
2023-04-14T23:24:46Z,qt76109e,serial-reaction-time,1,P,3,0,30,2341,0,4,481.59999999403954,324,H
2023-04-14T23:24:46Z,qt76109e,serial-reaction-time,NA,R,3,1,31,2341,0,1,148.80000000447035,241,L
2023-04-14T23:24:47Z,qt76109e,serial-reaction-time,1,R,3,0,31,2341,0,1,445.70000000298023,241,L
2023-04-14T23:24:47Z,qt76109e,serial-reaction-time,1,P,3,1,32,2341,0,1,314,411,H
2023-04-14T23:24:48Z,qt76109e,serial-reaction-time,NA,R,3,1,33,2341,0,4,401.6000000014901,114,L
2023-04-14T23:24:48Z,qt76109e,serial-reaction-time,1,R,3,0,33,2341,0,4,673.3999999985099,114,L
2023-04-14T23:24:48Z,qt76109e,serial-reaction-time,NA,P,3,1,34,2341,0,2,101,142,H
2023-04-14T23:24:49Z,qt76109e,serial-reaction-time,1,P,3,0,34,2341,0,2,412.3999999985099,142,H
2023-04-14T23:24:49Z,qt76109e,serial-reaction-time,1,R,3,1,35,2341,0,3,469.8999999985099,423,L
2023-04-14T23:24:50Z,qt76109e,serial-reaction-time,1,P,3,1,36,2341,0,3,342.19999999552965,233,H
2023-04-14T23:24:50Z,qt76109e,serial-reaction-time,1,R,3,1,37,2341,0,1,403.29999999701977,331,L
2023-04-14T23:24:51Z,qt76109e,serial-reaction-time,1,P,3,1,38,2341,0,4,390.40000000596046,314,H
2023-04-14T23:24:51Z,qt76109e,serial-reaction-time,1,R,3,1,39,2341,0,4,382,144,L
2023-04-14T23:24:52Z,qt76109e,serial-reaction-time,1,P,3,1,40,2341,0,1,457.59999999403954,441,H
2023-04-14T23:24:52Z,qt76109e,serial-reaction-time,1,R,3,1,41,2341,0,2,446.6000000014901,412,L
2023-04-14T23:24:53Z,qt76109e,serial-reaction-time,1,P,3,1,42,2341,0,2,373.70000000298023,122,H
2023-04-14T23:24:54Z,qt76109e,serial-reaction-time,1,R,3,1,43,2341,0,4,542.7999999970198,224,L
2023-04-14T23:24:54Z,qt76109e,serial-reaction-time,1,P,3,1,44,2341,0,3,509.6000000014901,243,H
2023-04-14T23:24:55Z,qt76109e,serial-reaction-time,1,R,3,1,45,2341,0,1,497.3999999985099,431,H
2023-04-14T23:24:55Z,qt76109e,serial-reaction-time,1,P,3,1,46,2341,0,4,390.30000000447035,314,H
2023-04-14T23:24:56Z,qt76109e,serial-reaction-time,1,R,3,1,47,2341,0,4,502.79999999701977,144,L
2023-04-14T23:24:57Z,qt76109e,serial-reaction-time,1,P,3,1,48,2341,0,1,382.3999999985099,441,H
2023-04-14T23:24:57Z,qt76109e,serial-reaction-time,1,R,3,1,49,2341,0,3,403.5,413,L
2023-04-14T23:24:58Z,qt76109e,serial-reaction-time,1,P,3,1,50,2341,0,2,402.59999999403954,132,H
2023-04-14T23:24:58Z,qt76109e,serial-reaction-time,1,R,3,1,51,2341,0,3,331,323,T
2023-04-14T23:24:59Z,qt76109e,serial-reaction-time,1,P,3,1,52,2341,0,3,365.30000000447035,233,H
2023-04-14T23:24:59Z,qt76109e,serial-reaction-time,1,R,3,1,53,2341,0,3,415.1000000014901,333,R
2023-04-14T23:25:00Z,qt76109e,serial-reaction-time,1,P,3,1,54,2341,0,4,390.5,334,H
2023-04-14T23:25:01Z,qt76109e,serial-reaction-time,1,R,3,1,55,2341,0,4,745.4000000059605,344,H
2023-04-14T23:25:01Z,qt76109e,serial-reaction-time,1,P,3,1,56,2341,0,1,464.5,441,H
2023-04-14T23:25:02Z,qt76109e,serial-reaction-time,1,R,3,1,57,2341,0,1,403.09999999403954,411,H
2023-04-14T23:25:03Z,qt76109e,serial-reaction-time,1,P,3,1,58,2341,0,2,1112.1999999955297,112,H
2023-04-14T23:25:04Z,qt76109e,serial-reaction-time,1,R,3,1,59,2341,0,4,428,124,L
2023-04-14T23:25:04Z,qt76109e,serial-reaction-time,NA,P,3,1,60,2341,0,3,331.79999999701977,243,H
2023-04-14T23:25:04Z,qt76109e,serial-reaction-time,1,P,3,0,60,2341,0,3,527.5,243,H
2023-04-14T23:25:05Z,qt76109e,serial-reaction-time,1,R,3,1,61,2341,0,4,474.6000000014901,434,T
2023-04-14T23:25:05Z,qt76109e,serial-reaction-time,1,P,3,1,62,2341,0,4,299.8999999985099,344,H
2023-04-14T23:25:06Z,qt76109e,serial-reaction-time,1,R,3,1,63,2341,0,4,419.20000000298023,444,R
2023-04-14T23:25:06Z,qt76109e,serial-reaction-time,1,P,3,1,64,2341,0,1,375.5,441,H
2023-04-14T23:25:07Z,qt76109e,serial-reaction-time,1,R,3,1,65,2341,0,4,603.2999999970198,414,T
2023-04-14T23:25:07Z,qt76109e,serial-reaction-time,NA,P,3,1,66,2341,0,2,234.29999999701977,142,H
2023-04-14T23:25:08Z,qt76109e,serial-reaction-time,1,P,3,0,66,2341,0,2,477.1000000014901,142,H
2023-04-14T23:25:08Z,qt76109e,serial-reaction-time,1,R,3,1,67,2341,0,2,653,422,L
2023-04-14T23:25:09Z,qt76109e,serial-reaction-time,1,P,3,1,68,2341,0,3,359.30000000447035,223,H
2023-04-14T23:25:10Z,qt76109e,serial-reaction-time,1,R,3,1,69,2341,0,4,505.59999999403954,234,L
2023-04-14T23:25:10Z,qt76109e,serial-reaction-time,1,P,3,1,70,2341,0,4,203.5,344,H
2023-04-14T23:25:10Z,qt76109e,serial-reaction-time,1,R,3,1,71,2341,0,3,447.6000000014901,443,L
2023-04-14T23:25:11Z,qt76109e,serial-reaction-time,1,P,3,1,72,2341,0,1,379.1000000014901,431,H
2023-04-14T23:25:12Z,qt76109e,serial-reaction-time,1,R,3,1,73,2341,0,3,568.8000000044703,313,T
2023-04-14T23:25:12Z,qt76109e,serial-reaction-time,1,P,3,1,74,2341,0,2,513.7999999970198,132,H
2023-04-14T23:25:13Z,qt76109e,serial-reaction-time,NA,R,3,1,75,2341,0,4,407,324,H
2023-04-14T23:25:13Z,qt76109e,serial-reaction-time,1,R,3,0,75,2341,0,4,426.70000000298023,324,H
2023-04-14T23:25:13Z,qt76109e,serial-reaction-time,1,P,3,1,76,2341,0,3,444.29999999701977,243,H
2023-04-14T23:25:14Z,qt76109e,serial-reaction-time,1,R,3,1,77,2341,0,3,317,433,L
2023-04-14T23:25:14Z,qt76109e,serial-reaction-time,1,P,3,1,78,2341,0,4,408.70000000298023,334,H
2023-04-14T23:25:15Z,qt76109e,serial-reaction-time,1,R,3,1,79,2341,0,1,442.70000000298023,341,L
2023-04-14T23:25:16Z,qt76109e,serial-reaction-time,1,P,3,1,80,2341,0,1,429.5,411,H
2023-04-14T23:25:21Z,qt76109e,html-keyboard-response,NA,NA,NA,NA,NA,NA,NA,NA,NA,NA,NA
2023-04-14T23:25:22Z,qt76109e,html-keyboard-response,NA,NA,NA,NA,NA,NA,NA,NA,NA,NA,NA
2023-04-14T23:25:23Z,qt76109e,serial-reaction-time,1,R,4,1,1,2341,0,1,686.2999999970198,1,X
2023-04-14T23:25:24Z,qt76109e,serial-reaction-time,1,P,4,1,2,2341,0,2,515.7000000029802,12,X
2023-04-14T23:25:24Z,qt76109e,serial-reaction-time,1,R,4,1,3,2341,0,4,435,124,L
2023-04-14T23:25:25Z,qt76109e,serial-reaction-time,1,P,4,1,4,2341,0,3,418.40000000596046,243,H
2023-04-14T23:25:25Z,qt76109e,serial-reaction-time,1,R,4,1,5,2341,0,4,343.70000000298023,434,T
2023-04-14T23:25:26Z,qt76109e,serial-reaction-time,1,P,4,1,6,2341,0,4,417,344,H
2023-04-14T23:25:27Z,qt76109e,serial-reaction-time,1,R,4,1,7,2341,0,2,1022,442,L
2023-04-14T23:25:28Z,qt76109e,serial-reaction-time,1,P,4,1,8,2341,0,1,454.30000000447035,421,H
2023-04-14T23:25:28Z,qt76109e,serial-reaction-time,1,R,4,1,9,2341,0,3,406.5,213,H
2023-04-14T23:25:29Z,qt76109e,serial-reaction-time,1,P,4,1,10,2341,0,2,541.5,132,H
2023-04-14T23:25:29Z,qt76109e,serial-reaction-time,1,R,4,1,11,2341,0,3,329.3999999985099,323,T
2023-04-14T23:25:30Z,qt76109e,serial-reaction-time,1,P,4,1,12,2341,0,3,200.60000000149012,233,H
2023-04-14T23:25:30Z,qt76109e,serial-reaction-time,1,R,4,1,13,2341,0,4,337.19999999552965,334,H
2023-04-14T23:25:31Z,qt76109e,serial-reaction-time,1,P,4,1,14,2341,0,4,350.3999999985099,344,H
2023-04-14T23:25:31Z,qt76109e,serial-reaction-time,1,R,4,1,15,2341,0,4,487.5,444,R
2023-04-14T23:25:32Z,qt76109e,serial-reaction-time,1,P,4,1,16,2341,0,1,417.20000000298023,441,H
2023-04-14T23:25:33Z,qt76109e,serial-reaction-time,1,R,4,1,17,2341,0,3,487.09999999403954,413,L
2023-04-14T23:25:33Z,qt76109e,serial-reaction-time,1,P,4,1,18,2341,0,2,409.20000000298023,132,H
2023-04-14T23:25:34Z,qt76109e,serial-reaction-time,1,R,4,1,19,2341,0,4,388.3999999985099,324,H
2023-04-14T23:25:34Z,qt76109e,serial-reaction-time,1,P,4,1,20,2341,0,3,409.79999999701977,243,H
2023-04-14T23:25:35Z,qt76109e,serial-reaction-time,1,R,4,1,21,2341,0,2,440.90000000596046,432,L
2023-04-14T23:25:35Z,qt76109e,serial-reaction-time,1,P,4,1,22,2341,0,4,481.8999999985099,324,H
2023-04-14T23:25:36Z,qt76109e,serial-reaction-time,1,R,4,1,23,2341,0,3,494.19999999552965,243,H
2023-04-14T23:25:37Z,qt76109e,serial-reaction-time,1,P,4,1,24,2341,0,1,617.6999999955297,431,H
2023-04-14T23:25:37Z,qt76109e,serial-reaction-time,1,R,4,1,25,2341,0,3,499.69999999552965,313,T
2023-04-14T23:25:38Z,qt76109e,serial-reaction-time,1,P,4,1,26,2341,0,2,548.3000000044703,132,H
2023-04-14T23:25:39Z,qt76109e,serial-reaction-time,1,R,4,1,27,2341,0,4,514.5,324,H
2023-04-14T23:25:39Z,qt76109e,serial-reaction-time,1,P,4,1,28,2341,0,3,474.70000000298023,243,H
2023-04-14T23:25:40Z,qt76109e,serial-reaction-time,1,R,4,1,29,2341,0,2,1021.2999999970198,432,L
2023-04-14T23:25:41Z,qt76109e,serial-reaction-time,1,P,4,1,30,2341,0,4,419.1000000014901,324,H
2023-04-14T23:25:42Z,qt76109e,serial-reaction-time,1,R,4,1,31,2341,0,4,460.29999999701977,244,L
2023-04-14T23:25:42Z,qt76109e,serial-reaction-time,1,P,4,1,32,2341,0,1,736.3999999985099,441,H
2023-04-14T23:25:43Z,qt76109e,serial-reaction-time,1,R,4,1,33,2341,0,3,417.5,413,L
2023-04-14T23:25:44Z,qt76109e,serial-reaction-time,1,P,4,1,34,2341,0,2,537.7999999970198,132,H
2023-04-14T23:25:44Z,qt76109e,serial-reaction-time,NA,R,4,1,35,2341,0,3,157.70000000298023,323,T
2023-04-14T23:25:44Z,qt76109e,serial-reaction-time,1,R,4,0,35,2341,0,3,507.30000000447035,323,T
2023-04-14T23:25:45Z,qt76109e,serial-reaction-time,1,P,4,1,36,2341,0,3,350.3999999985099,233,H
2023-04-14T23:25:46Z,qt76109e,serial-reaction-time,1,R,4,1,37,2341,0,3,1212.10000000149,333,R
2023-04-14T23:25:47Z,qt76109e,serial-reaction-time,1,P,4,1,38,2341,0,4,394.79999999701977,334,H
2023-04-14T23:25:47Z,qt76109e,serial-reaction-time,1,R,4,1,39,2341,0,4,549.1999999955297,344,H
2023-04-14T23:25:48Z,qt76109e,serial-reaction-time,1,P,4,1,40,2341,0,1,617.2999999970198,441,H
2023-04-14T23:25:49Z,qt76109e,serial-reaction-time,1,R,4,1,41,2341,0,2,488.19999999552965,412,L
2023-04-14T23:25:49Z,qt76109e,serial-reaction-time,1,P,4,1,42,2341,0,2,260.6000000014901,122,H
2023-04-14T23:25:50Z,qt76109e,serial-reaction-time,1,R,4,1,43,2341,0,2,347.3999999985099,222,R
2023-04-14T23:25:50Z,qt76109e,serial-reaction-time,1,P,4,1,44,2341,0,3,365.80000000447035,223,H
2023-04-14T23:25:50Z,qt76109e,serial-reaction-time,1,R,4,1,45,2341,0,3,276.29999999701977,233,H
2023-04-14T23:25:51Z,qt76109e,serial-reaction-time,1,P,4,1,46,2341,0,4,397.8999999985099,334,H
2023-04-14T23:25:52Z,qt76109e,serial-reaction-time,1,R,4,1,47,2341,0,3,442.20000000298023,343,T
2023-04-14T23:25:52Z,qt76109e,serial-reaction-time,1,P,4,1,48,2341,0,1,552.8000000044703,431,H
2023-04-14T23:25:53Z,qt76109e,serial-reaction-time,NA,R,4,1,49,2341,0,2,256.29999999701977,312,L
2023-04-14T23:25:53Z,qt76109e,serial-reaction-time,1,R,4,0,49,2341,0,2,450.4999999925494,312,L
2023-04-14T23:25:53Z,qt76109e,serial-reaction-time,1,P,4,1,50,2341,0,2,344.29999999701977,122,H
2023-04-14T23:25:54Z,qt76109e,serial-reaction-time,NA,R,4,1,51,2341,0,4,314.90000000596046,224,L
2023-04-14T23:25:54Z,qt76109e,serial-reaction-time,1,R,4,0,51,2341,0,4,610.0000000074506,224,L
2023-04-14T23:25:55Z,qt76109e,serial-reaction-time,1,P,4,1,52,2341,0,3,442.3999999985099,243,H
2023-04-14T23:25:55Z,qt76109e,serial-reaction-time,1,R,4,1,53,2341,0,4,563.6999999955297,434,T
2023-04-14T23:25:56Z,qt76109e,serial-reaction-time,1,P,4,1,54,2341,0,4,416.1000000014901,344,H
2023-04-14T23:25:57Z,qt76109e,serial-reaction-time,1,R,4,1,55,2341,0,1,478.1000000014901,441,H
2023-04-14T23:25:57Z,qt76109e,serial-reaction-time,1,P,4,1,56,2341,0,1,290.40000000596046,411,H
2023-04-14T23:25:58Z,qt76109e,serial-reaction-time,NA,R,4,1,57,2341,0,4,540.2000000029802,114,L
2023-04-14T23:25:58Z,qt76109e,serial-reaction-time,1,R,4,0,57,2341,0,4,859.4000000059605,114,L
2023-04-14T23:25:59Z,qt76109e,serial-reaction-time,1,P,4,1,58,2341,0,2,467.40000000596046,142,H
2023-04-14T23:25:59Z,qt76109e,serial-reaction-time,1,R,4,1,59,2341,0,4,623.3999999985099,424,T
2023-04-14T23:26:00Z,qt76109e,serial-reaction-time,1,P,4,1,60,2341,0,3,500.5,243,H
2023-04-14T23:26:00Z,qt76109e,serial-reaction-time,1,R,4,1,61,2341,0,2,444.6000000014901,432,L
2023-04-14T23:26:01Z,qt76109e,serial-reaction-time,1,P,4,1,62,2341,0,4,827.4000000059605,324,H
2023-04-14T23:26:03Z,qt76109e,serial-reaction-time,1,R,4,1,63,2341,0,2,934,242,T
2023-04-14T23:26:03Z,qt76109e,serial-reaction-time,1,P,4,1,64,2341,0,1,566.8999999985099,421,H
2023-04-14T23:26:04Z,qt76109e,serial-reaction-time,1,R,4,1,65,2341,0,1,339,211,L
2023-04-14T23:26:04Z,qt76109e,serial-reaction-time,1,P,4,1,66,2341,0,2,500,112,H
2023-04-14T23:26:05Z,qt76109e,serial-reaction-time,1,R,4,1,67,2341,0,2,308.3999999985099,122,H
2023-04-14T23:26:05Z,qt76109e,serial-reaction-time,1,P,4,1,68,2341,0,3,492.09999999403954,223,H
2023-04-14T23:26:06Z,qt76109e,serial-reaction-time,1,R,4,1,69,2341,0,1,417,231,L
2023-04-14T23:26:07Z,qt76109e,serial-reaction-time,1,P,4,1,70,2341,0,4,448.8999999985099,314,H
2023-04-14T23:26:07Z,qt76109e,serial-reaction-time,1,R,4,1,71,2341,0,2,294.8999999985099,142,H
2023-04-14T23:26:07Z,qt76109e,serial-reaction-time,1,P,4,1,72,2341,0,1,275.1000000014901,421,H
2023-04-14T23:26:08Z,qt76109e,serial-reaction-time,1,R,4,1,73,2341,0,2,276.79999999701977,212,T
2023-04-14T23:26:08Z,qt76109e,serial-reaction-time,NA,P,4,1,74,2341,0,2,113.20000000298025,122,H
2023-04-14T23:26:08Z,qt76109e,serial-reaction-time,1,P,4,0,74,2341,0,2,418.20000000298023,122,H
2023-04-14T23:26:09Z,qt76109e,serial-reaction-time,1,R,4,1,75,2341,0,4,436.3999999985099,224,L
2023-04-14T23:26:09Z,qt76109e,serial-reaction-time,NA,P,4,1,76,2341,0,3,287.40000000596046,243,H
2023-04-14T23:26:10Z,qt76109e,serial-reaction-time,1,P,4,0,76,2341,0,3,585.8000000044703,243,H
2023-04-14T23:26:10Z,qt76109e,serial-reaction-time,1,R,4,1,77,2341,0,4,520.0999999940395,434,T
2023-04-14T23:26:11Z,qt76109e,serial-reaction-time,1,P,4,1,78,2341,0,4,476.70000000298023,344,H
2023-04-14T23:26:11Z,qt76109e,serial-reaction-time,1,R,4,1,79,2341,0,4,341.3999999985099,444,R
2023-04-14T23:26:12Z,qt76109e,serial-reaction-time,1,P,4,1,80,2341,0,1,435.30000000447035,441,H
2023-04-14T23:26:17Z,qt76109e,html-keyboard-response,NA,NA,NA,NA,NA,NA,NA,NA,NA,NA,NA
2023-04-14T23:26:18Z,qt76109e,html-keyboard-response,NA,NA,NA,NA,NA,NA,NA,NA,NA,NA,NA
2023-04-14T23:26:19Z,qt76109e,serial-reaction-time,1,R,5,1,1,2341,0,4,877.8999999985099,4,X
2023-04-14T23:26:20Z,qt76109e,serial-reaction-time,NA,P,5,1,2,2341,0,2,235.10000000149012,42,X
2023-04-14T23:26:20Z,qt76109e,serial-reaction-time,1,P,5,0,2,2341,0,2,551.7000000029802,42,X
2023-04-14T23:26:21Z,qt76109e,serial-reaction-time,1,R,5,1,3,2341,0,2,350.70000000298023,422,L
2023-04-14T23:26:21Z,qt76109e,serial-reaction-time,1,P,5,1,4,2341,0,3,457.79999999701977,223,H
2023-04-14T23:26:22Z,qt76109e,serial-reaction-time,1,R,5,1,5,2341,0,2,431.6000000014901,232,T
2023-04-14T23:26:22Z,qt76109e,serial-reaction-time,1,P,5,1,6,2341,0,4,390.70000000298023,324,H
2023-04-14T23:26:23Z,qt76109e,serial-reaction-time,1,R,5,1,7,2341,0,3,434.8999999985099,243,H
2023-04-14T23:26:23Z,qt76109e,serial-reaction-time,1,P,5,1,8,2341,0,1,491.6000000014901,431,H
2023-04-14T23:26:24Z,qt76109e,serial-reaction-time,1,R,5,1,9,2341,0,4,420.1000000014901,314,H
2023-04-14T23:26:25Z,qt76109e,serial-reaction-time,1,P,5,1,10,2341,0,2,363.70000000298023,142,H
2023-04-14T23:26:25Z,qt76109e,serial-reaction-time,NA,R,5,1,11,2341,0,3,318.20000000298023,423,L
2023-04-14T23:26:25Z,qt76109e,serial-reaction-time,1,R,5,0,11,2341,0,3,559.3000000044703,423,L
2023-04-14T23:26:26Z,qt76109e,serial-reaction-time,1,P,5,1,12,2341,0,3,331.8999999985099,233,H
2023-04-14T23:26:26Z,qt76109e,serial-reaction-time,1,R,5,1,13,2341,0,3,409.70000000298023,333,R
2023-04-14T23:26:27Z,qt76109e,serial-reaction-time,1,P,5,1,14,2341,0,4,357.6000000014901,334,H
2023-04-14T23:26:27Z,qt76109e,serial-reaction-time,1,R,5,1,15,2341,0,1,426.3999999985099,341,L
2023-04-14T23:26:28Z,qt76109e,serial-reaction-time,1,P,5,1,16,2341,0,1,273.3999999985099,411,H
2023-04-14T23:26:28Z,qt76109e,serial-reaction-time,1,R,5,1,17,2341,0,2,474.09999999403954,112,H
2023-04-14T23:26:29Z,qt76109e,serial-reaction-time,1,P,5,1,18,2341,0,2,275.5,122,H
2023-04-14T23:26:29Z,qt76109e,serial-reaction-time,1,R,5,1,19,2341,0,2,328.8999999985099,222,R
2023-04-14T23:26:30Z,qt76109e,serial-reaction-time,1,P,5,1,20,2341,0,3,645.7000000029802,223,H
2023-04-14T23:26:31Z,qt76109e,serial-reaction-time,NA,R,5,1,21,2341,0,1,542.2999999970198,231,L
2023-04-14T23:26:31Z,qt76109e,serial-reaction-time,NA,R,5,0,21,2341,0,1,1149.39999999851,231,L
2023-04-14T23:26:32Z,qt76109e,serial-reaction-time,1,R,5,0,21,2341,0,1,1499.2999999970198,231,L
2023-04-14T23:26:32Z,qt76109e,serial-reaction-time,1,P,5,1,22,2341,0,4,491.1000000014901,314,H
2023-04-14T23:26:33Z,qt76109e,serial-reaction-time,1,R,5,1,23,2341,0,1,472.69999999552965,141,T
2023-04-14T23:26:33Z,qt76109e,serial-reaction-time,1,P,5,1,24,2341,0,1,311.20000000298023,411,H
2023-04-14T23:26:34Z,qt76109e,serial-reaction-time,1,R,5,1,25,2341,0,1,355.29999999701977,111,R
2023-04-14T23:26:35Z,qt76109e,serial-reaction-time,1,P,5,1,26,2341,0,2,737.1000000014901,112,H
2023-04-14T23:26:35Z,qt76109e,serial-reaction-time,1,R,5,1,27,2341,0,4,558.7999999970198,124,L
2023-04-14T23:26:36Z,qt76109e,serial-reaction-time,1,P,5,1,28,2341,0,3,831.5,243,H
2023-04-14T23:26:37Z,qt76109e,serial-reaction-time,NA,R,5,1,29,2341,0,4,205.69999999552965,434,T
2023-04-14T23:26:37Z,qt76109e,serial-reaction-time,1,R,5,0,29,2341,0,4,457.7999999895692,434,T
2023-04-14T23:26:37Z,qt76109e,serial-reaction-time,1,P,5,1,30,2341,0,4,98.29999999701975,344,H
2023-04-14T23:26:37Z,qt76109e,serial-reaction-time,1,R,5,1,31,2341,0,4,56.29999999701977,444,R
2023-04-14T23:26:38Z,qt76109e,serial-reaction-time,1,P,5,1,32,2341,0,1,396.1000000014901,441,H
2023-04-14T23:26:38Z,qt76109e,serial-reaction-time,NA,R,5,1,33,2341,0,2,92.5,412,L
2023-04-14T23:26:38Z,qt76109e,serial-reaction-time,NA,R,5,0,33,2341,0,2,400.1000000014901,412,L
2023-04-14T23:26:39Z,qt76109e,serial-reaction-time,1,R,5,0,33,2341,0,2,649.7000000029802,412,L
2023-04-14T23:26:39Z,qt76109e,serial-reaction-time,1,P,5,1,34,2341,0,2,98.39999999850988,122,H
2023-04-14T23:26:39Z,qt76109e,serial-reaction-time,NA,R,5,1,35,2341,0,4,46.400000005960464,224,L
2023-04-14T23:26:39Z,qt76109e,serial-reaction-time,1,R,5,0,35,2341,0,4,381.2000000104308,224,L
2023-04-14T23:26:40Z,qt76109e,serial-reaction-time,NA,P,5,1,36,2341,0,3,83.5,243,H
2023-04-14T23:26:40Z,qt76109e,serial-reaction-time,1,P,5,0,36,2341,0,3,500.20000000298023,243,H
2023-04-14T23:26:40Z,qt76109e,serial-reaction-time,NA,R,5,1,37,2341,0,4,94.90000000596046,434,T
2023-04-14T23:26:41Z,qt76109e,serial-reaction-time,1,R,5,0,37,2341,0,4,429.6000000089407,434,T
2023-04-14T23:26:41Z,qt76109e,serial-reaction-time,1,P,5,1,38,2341,0,4,81.80000000447035,344,H
2023-04-14T23:26:41Z,qt76109e,serial-reaction-time,NA,R,5,1,39,2341,0,2,84.70000000298023,442,L
2023-04-14T23:26:42Z,qt76109e,serial-reaction-time,1,R,5,0,39,2341,0,2,590.6000000014901,442,L
2023-04-14T23:26:42Z,qt76109e,serial-reaction-time,NA,P,5,1,40,2341,0,1,174.29999999701977,421,H
2023-04-14T23:26:42Z,qt76109e,serial-reaction-time,1,P,5,0,40,2341,0,1,468.8999999985099,421,H
2023-04-14T23:26:43Z,qt76109e,serial-reaction-time,NA,R,5,1,41,2341,0,2,156.70000000298023,212,T
2023-04-14T23:26:43Z,qt76109e,serial-reaction-time,NA,R,5,0,41,2341,0,2,333.6000000014901,212,T
2023-04-14T23:26:43Z,qt76109e,serial-reaction-time,1,R,5,0,41,2341,0,2,487.5,212,T
2023-04-14T23:26:43Z,qt76109e,serial-reaction-time,1,P,5,1,42,2341,0,2,121.20000000298025,122,H
2023-04-14T23:26:43Z,qt76109e,serial-reaction-time,NA,R,5,1,43,2341,0,1,58.5,221,L
2023-04-14T23:26:44Z,qt76109e,serial-reaction-time,NA,R,5,0,43,2341,0,1,251.29999999701977,221,L
2023-04-14T23:26:44Z,qt76109e,serial-reaction-time,1,R,5,0,43,2341,0,1,458.29999999701977,221,L
2023-04-14T23:26:44Z,qt76109e,serial-reaction-time,NA,P,5,1,44,2341,0,3,185.70000000298023,213,H
2023-04-14T23:26:44Z,qt76109e,serial-reaction-time,1,P,5,0,44,2341,0,3,481.70000000298023,213,H
2023-04-14T23:26:45Z,qt76109e,serial-reaction-time,1,R,5,1,45,2341,0,3,130.10000000149012,133,L
2023-04-14T23:26:45Z,qt76109e,serial-reaction-time,NA,P,5,1,46,2341,0,4,96,334,H
2023-04-14T23:26:46Z,qt76109e,serial-reaction-time,NA,P,5,0,46,2341,0,4,742.2999999970198,334,H
2023-04-14T23:26:46Z,qt76109e,serial-reaction-time,1,P,5,0,46,2341,0,4,1089.9999999925494,334,H
2023-04-14T23:26:46Z,qt76109e,serial-reaction-time,NA,R,5,1,47,2341,0,2,117,342,L
2023-04-14T23:26:47Z,qt76109e,serial-reaction-time,1,R,5,0,47,2341,0,2,689,342,L
2023-04-14T23:26:47Z,qt76109e,serial-reaction-time,NA,P,5,1,48,2341,0,1,130.59999999403954,421,H
2023-04-14T23:26:47Z,qt76109e,serial-reaction-time,NA,P,5,0,48,2341,0,1,365.8999999985099,421,H
2023-04-14T23:26:47Z,qt76109e,serial-reaction-time,1,P,5,0,48,2341,0,1,466.59999999403954,421,H
2023-04-14T23:26:48Z,qt76109e,serial-reaction-time,NA,R,5,1,49,2341,0,3,109,213,H
2023-04-14T23:26:48Z,qt76109e,serial-reaction-time,NA,R,5,0,49,2341,0,3,318,213,H
2023-04-14T23:26:48Z,qt76109e,serial-reaction-time,1,R,5,0,49,2341,0,3,459.3999999985099,213,H
2023-04-14T23:26:48Z,qt76109e,serial-reaction-time,NA,P,5,1,50,2341,0,2,129.70000000298023,132,H
2023-04-14T23:26:48Z,qt76109e,serial-reaction-time,NA,P,5,0,50,2341,0,2,303.8999999985099,132,H
2023-04-14T23:26:48Z,qt76109e,serial-reaction-time,1,P,5,0,50,2341,0,2,416.29999999701977,132,H
2023-04-14T23:26:49Z,qt76109e,serial-reaction-time,NA,R,5,1,51,2341,0,1,122.10000000149012,321,L
2023-04-14T23:26:49Z,qt76109e,serial-reaction-time,NA,R,5,0,51,2341,0,1,338.1000000014901,321,L
2023-04-14T23:26:49Z,qt76109e,serial-reaction-time,1,R,5,0,51,2341,0,1,520.8000000044703,321,L
2023-04-14T23:26:49Z,qt76109e,serial-reaction-time,NA,P,5,1,52,2341,0,3,137.70000000298023,213,H
2023-04-14T23:26:50Z,qt76109e,serial-reaction-time,1,P,5,0,52,2341,0,3,994.7999999970198,213,H
2023-04-14T23:26:51Z,qt76109e,serial-reaction-time,NA,R,5,1,53,2341,0,4,98.69999999552964,134,L
2023-04-14T23:26:51Z,qt76109e,serial-reaction-time,NA,R,5,0,53,2341,0,4,279.2999999895692,134,L
2023-04-14T23:26:51Z,qt76109e,serial-reaction-time,1,R,5,0,53,2341,0,4,435.9999999925494,134,L
2023-04-14T23:26:51Z,qt76109e,serial-reaction-time,1,P,5,1,54,2341,0,4,58.10000000149011,344,H
2023-04-14T23:26:51Z,qt76109e,serial-reaction-time,NA,R,5,1,55,2341,0,2,41.20000000298023,442,L
2023-04-14T23:26:51Z,qt76109e,serial-reaction-time,NA,R,5,0,55,2341,0,2,226.4000000059605,442,L
2023-04-14T23:26:52Z,qt76109e,serial-reaction-time,1,R,5,0,55,2341,0,2,488.2000000104308,442,L
2023-04-14T23:26:52Z,qt76109e,serial-reaction-time,NA,P,5,1,56,2341,0,1,114,421,H
2023-04-14T23:26:52Z,qt76109e,serial-reaction-time,NA,P,5,0,56,2341,0,1,317.79999999701977,421,H
2023-04-14T23:26:52Z,qt76109e,serial-reaction-time,1,P,5,0,56,2341,0,1,495.8999999985099,421,H
2023-04-14T23:26:53Z,qt76109e,serial-reaction-time,1,R,5,1,57,2341,0,1,114.80000000447036,211,L
2023-04-14T23:26:53Z,qt76109e,serial-reaction-time,NA,P,5,1,58,2341,0,2,91.60000000149012,112,H
2023-04-14T23:26:53Z,qt76109e,serial-reaction-time,1,P,5,0,58,2341,0,2,326.20000000298023,112,H
2023-04-14T23:26:53Z,qt76109e,serial-reaction-time,NA,R,5,1,59,2341,0,1,145.90000000596046,121,T
2023-04-14T23:26:54Z,qt76109e,serial-reaction-time,1,R,5,0,59,2341,0,1,437.2000000104308,121,T
2023-04-14T23:26:54Z,qt76109e,serial-reaction-time,NA,P,5,1,60,2341,0,3,20.100000001490116,213,H
2023-04-14T23:26:54Z,qt76109e,serial-reaction-time,NA,P,5,0,60,2341,0,3,267.5,213,H
2023-04-14T23:26:54Z,qt76109e,serial-reaction-time,NA,P,5,0,60,2341,0,3,332.29999999701977,213,H
2023-04-14T23:26:54Z,qt76109e,serial-reaction-time,1,P,5,0,60,2341,0,3,501.9999999925494,213,H
2023-04-14T23:26:55Z,qt76109e,serial-reaction-time,1,R,5,1,61,2341,0,3,128.19999999552965,133,L
2023-04-14T23:26:55Z,qt76109e,serial-reaction-time,NA,P,5,1,62,2341,0,4,70.39999999850988,334,H
2023-04-14T23:26:55Z,qt76109e,serial-reaction-time,1,P,5,0,62,2341,0,4,448.3999999985099,334,H
2023-04-14T23:26:55Z,qt76109e,serial-reaction-time,NA,R,5,1,63,2341,0,1,79.90000000596046,341,L
2023-04-14T23:26:56Z,qt76109e,serial-reaction-time,1,R,5,0,63,2341,0,1,434.90000000596046,341,L
2023-04-14T23:26:56Z,qt76109e,serial-reaction-time,1,P,5,1,64,2341,0,1,267.8999999985099,411,H
2023-04-14T23:26:56Z,qt76109e,serial-reaction-time,1,R,5,1,65,2341,0,1,105.69999999552964,111,R
2023-04-14T23:26:57Z,qt76109e,serial-reaction-time,NA,P,5,1,66,2341,0,2,220.60000000149012,112,H
2023-04-14T23:26:57Z,qt76109e,serial-reaction-time,1,P,5,0,66,2341,0,2,447.80000000447035,112,H
2023-04-14T23:26:57Z,qt76109e,serial-reaction-time,NA,R,5,1,67,2341,0,3,113.79999999701975,123,L
2023-04-14T23:26:57Z,qt76109e,serial-reaction-time,NA,R,5,0,67,2341,0,3,300.3999999985099,123,L
2023-04-14T23:26:58Z,qt76109e,serial-reaction-time,1,R,5,0,67,2341,0,3,456.79999999701977,123,L
2023-04-14T23:26:58Z,qt76109e,serial-reaction-time,1,P,5,1,68,2341,0,3,99.89999999850988,233,H
2023-04-14T23:26:58Z,qt76109e,serial-reaction-time,1,R,5,1,69,2341,0,3,46.30000000447035,333,R
2023-04-14T23:26:58Z,qt76109e,serial-reaction-time,NA,P,5,1,70,2341,0,4,24.600000001490116,334,H
2023-04-14T23:26:59Z,qt76109e,serial-reaction-time,1,P,5,0,70,2341,0,4,566.5,334,H
2023-04-14T23:26:59Z,qt76109e,serial-reaction-time,1,R,5,1,71,2341,0,4,53.5,344,H
2023-04-14T23:26:59Z,qt76109e,serial-reaction-time,NA,P,5,1,72,2341,0,1,49.10000000149011,441,H
2023-04-14T23:26:59Z,qt76109e,serial-reaction-time,NA,P,5,0,72,2341,0,1,195.20000000298023,441,H
2023-04-14T23:27:00Z,qt76109e,serial-reaction-time,1,P,5,0,72,2341,0,1,498.5,441,H
2023-04-14T23:27:00Z,qt76109e,serial-reaction-time,1,R,5,1,73,2341,0,1,116.10000000149012,411,H
2023-04-14T23:27:00Z,qt76109e,serial-reaction-time,NA,P,5,1,74,2341,0,2,68.90000000596046,112,H
2023-04-14T23:27:00Z,qt76109e,serial-reaction-time,1,P,5,0,74,2341,0,2,350.80000000447035,112,H
2023-04-14T23:27:01Z,qt76109e,serial-reaction-time,NA,R,5,1,75,2341,0,1,89,121,T
2023-04-14T23:27:01Z,qt76109e,serial-reaction-time,NA,R,5,0,75,2341,0,1,252.79999999701977,121,T
2023-04-14T23:27:01Z,qt76109e,serial-reaction-time,1,R,5,0,75,2341,0,1,500.70000000298023,121,T
2023-04-14T23:27:01Z,qt76109e,serial-reaction-time,NA,P,5,1,76,2341,0,3,160.79999999701977,213,H
2023-04-14T23:27:02Z,qt76109e,serial-reaction-time,1,P,5,0,76,2341,0,3,444.3999999910593,213,H
2023-04-14T23:27:02Z,qt76109e,serial-reaction-time,1,R,5,1,77,2341,0,3,95,133,L
2023-04-14T23:27:02Z,qt76109e,serial-reaction-time,NA,P,5,1,78,2341,0,4,32.600000001490116,334,H
2023-04-14T23:27:02Z,qt76109e,serial-reaction-time,NA,P,5,0,78,2341,0,4,194.39999999850988,334,H
2023-04-14T23:27:02Z,qt76109e,serial-reaction-time,1,P,5,0,78,2341,0,4,495.69999999552965,334,H
2023-04-14T23:27:03Z,qt76109e,serial-reaction-time,NA,R,5,1,79,2341,0,3,69.60000000149012,343,T
2023-04-14T23:27:03Z,qt76109e,serial-reaction-time,NA,R,5,0,79,2341,0,3,225.10000000149012,343,T
2023-04-14T23:27:03Z,qt76109e,serial-reaction-time,NA,R,5,0,79,2341,0,3,445.5000000074506,343,T
2023-04-14T23:27:03Z,qt76109e,serial-reaction-time,1,R,5,0,79,2341,0,3,558.5000000074506,343,T
2023-04-14T23:27:03Z,qt76109e,serial-reaction-time,NA,P,5,1,80,2341,0,1,86.60000000149012,431,H
2023-04-14T23:27:04Z,qt76109e,serial-reaction-time,NA,P,5,0,80,2341,0,1,235.20000000298023,431,H
2023-04-14T23:27:04Z,qt76109e,serial-reaction-time,1,P,5,0,80,2341,0,1,457.30000000447035,431,H
2023-04-14T23:27:09Z,qt76109e,html-keyboard-response,NA,NA,NA,NA,NA,NA,NA,NA,NA,NA,NA
2023-04-14T23:27:12Z,qt76109e,html-keyboard-response,NA,NA,NA,NA,NA,NA,NA,NA,NA,NA,NA
2023-04-14T23:27:13Z,qt76109e,fullscreen,NA,NA,NA,NA,NA,NA,NA,NA,NA,NA,NA
2023-04-15T12:22:16Z,8op4movi,fullscreen,NA,NA,NA,NA,NA,NA,NA,NA,NA,NA,NA
2023-04-15T12:22:24Z,8op4movi,html-keyboard-response,NA,NA,NA,NA,NA,NA,NA,NA,NA,NA,NA
2023-04-15T12:22:25Z,8op4movi,serial-reaction-time,1,R,1,1,1,2134,0,3,406.20000000018626,3,X
2023-04-15T12:22:26Z,8op4movi,serial-reaction-time,NA,P,1,1,2,2134,0,2,227.09999999962747,32,X
2023-04-15T12:22:26Z,8op4movi,serial-reaction-time,1,P,1,0,2,2134,0,2,607.2999999998137,32,X
2023-04-15T12:22:27Z,8op4movi,serial-reaction-time,1,R,1,1,3,2134,0,1,412,321,L
2023-04-15T12:22:27Z,8op4movi,serial-reaction-time,1,P,1,1,4,2134,0,1,472.5,211,H
2023-04-15T12:22:28Z,8op4movi,serial-reaction-time,1,R,1,1,5,2134,0,2,455.20000000018626,112,L
2023-04-15T12:22:29Z,8op4movi,serial-reaction-time,1,P,1,1,6,2134,0,3,465.6000000005588,123,H
2023-04-15T12:22:29Z,8op4movi,serial-reaction-time,1,R,1,1,7,2134,0,1,374.6000000005588,231,H
2023-04-15T12:22:30Z,8op4movi,serial-reaction-time,1,P,1,1,8,2134,0,4,455.29999999981374,314,H
2023-04-15T12:22:30Z,8op4movi,serial-reaction-time,1,R,1,1,9,2134,0,3,402,143,H
2023-04-15T12:22:31Z,8op4movi,serial-reaction-time,1,P,1,1,10,2134,0,2,380.1000000005588,432,H
2023-04-15T12:22:31Z,8op4movi,serial-reaction-time,1,R,1,1,11,2134,0,1,352.59999999962747,321,L
2023-04-15T12:22:32Z,8op4movi,serial-reaction-time,1,P,1,1,12,2134,0,1,350.70000000018626,211,H
2023-04-15T12:22:32Z,8op4movi,serial-reaction-time,1,R,1,1,13,2134,0,4,514.2000000001863,114,L
2023-04-15T12:22:33Z,8op4movi,serial-reaction-time,1,P,1,1,14,2134,0,3,383.79999999981374,143,H
2023-04-15T12:22:33Z,8op4movi,serial-reaction-time,1,R,1,1,15,2134,0,3,349.5,433,L
2023-04-15T12:22:34Z,8op4movi,serial-reaction-time,1,P,1,1,16,2134,0,4,408.5,334,H
2023-04-15T12:22:34Z,8op4movi,serial-reaction-time,1,R,1,1,17,2134,0,4,337.5,344,H
2023-04-15T12:22:35Z,8op4movi,serial-reaction-time,1,P,1,1,18,2134,0,2,385.29999999981374,442,H
2023-04-15T12:22:35Z,8op4movi,serial-reaction-time,1,R,1,1,19,2134,0,4,415.5,424,T
2023-04-15T12:22:36Z,8op4movi,serial-reaction-time,1,P,1,1,20,2134,0,1,565,241,H
2023-04-15T12:22:37Z,8op4movi,serial-reaction-time,1,R,1,1,21,2134,0,1,379.5,411,L
2023-04-15T12:22:37Z,8op4movi,serial-reaction-time,1,P,1,1,22,2134,0,3,398.5,113,H
2023-04-15T12:22:38Z,8op4movi,serial-reaction-time,1,R,1,1,23,2134,0,3,329.70000000018626,133,H
2023-04-15T12:22:38Z,8op4movi,serial-reaction-time,1,P,1,1,24,2134,0,4,360.70000000018626,334,H
2023-04-15T12:22:39Z,8op4movi,serial-reaction-time,1,R,1,1,25,2134,0,1,455.9000000003726,341,L
2023-04-15T12:22:39Z,8op4movi,serial-reaction-time,1,P,1,1,26,2134,0,2,430.0999999996274,412,H
2023-04-15T12:22:40Z,8op4movi,serial-reaction-time,1,R,1,1,27,2134,0,3,459.5,123,H
2023-04-15T12:22:40Z,8op4movi,serial-reaction-time,1,P,1,1,28,2134,0,1,404.20000000018626,231,H
2023-04-15T12:22:41Z,8op4movi,serial-reaction-time,1,R,1,1,29,2134,0,1,374.29999999981374,311,L
2023-04-15T12:22:41Z,8op4movi,serial-reaction-time,NA,P,1,1,30,2134,0,3,359.59999999962747,113,H
2023-04-15T12:22:42Z,8op4movi,serial-reaction-time,1,P,1,0,30,2134,0,3,822.3999999994412,113,H
2023-04-15T12:22:43Z,8op4movi,serial-reaction-time,1,R,1,1,31,2134,0,2,586.8999999994412,132,L
2023-04-15T12:22:43Z,8op4movi,serial-reaction-time,1,P,1,1,32,2134,0,4,461.79999999981374,324,H
2023-04-15T12:22:44Z,8op4movi,serial-reaction-time,1,R,1,1,33,2134,0,1,465.5,241,H
2023-04-15T12:22:44Z,8op4movi,serial-reaction-time,1,P,1,1,34,2134,0,2,502.0999999996274,412,H
2023-04-15T12:22:45Z,8op4movi,serial-reaction-time,1,R,1,1,35,2134,0,2,359.79999999981374,122,L
2023-04-15T12:22:45Z,8op4movi,serial-reaction-time,1,P,1,1,36,2134,0,1,441.29999999981374,221,H
2023-04-15T12:22:46Z,8op4movi,serial-reaction-time,1,R,1,1,37,2134,0,4,475.79999999981374,214,L
2023-04-15T12:22:47Z,8op4movi,serial-reaction-time,1,P,1,1,38,2134,0,3,481,143,H
2023-04-15T12:22:47Z,8op4movi,serial-reaction-time,1,R,1,1,39,2134,0,1,559.5,431,L
2023-04-15T12:22:48Z,8op4movi,serial-reaction-time,1,P,1,1,40,2134,0,4,464.8999999994412,314,H
2023-04-15T12:22:48Z,8op4movi,serial-reaction-time,1,R,1,1,41,2134,0,1,395.19999999925494,141,T
2023-04-15T12:22:49Z,8op4movi,serial-reaction-time,1,P,1,1,42,2134,0,2,515,412,H
2023-04-15T12:22:50Z,8op4movi,serial-reaction-time,1,R,1,1,43,2134,0,3,379.5999999996274,123,H
2023-04-15T12:22:50Z,8op4movi,serial-reaction-time,1,P,1,1,44,2134,0,1,366.9000000003726,231,H
2023-04-15T12:22:51Z,8op4movi,serial-reaction-time,1,R,1,1,45,2134,0,1,411.79999999981374,311,L
2023-04-15T12:22:51Z,8op4movi,serial-reaction-time,1,P,1,1,46,2134,0,3,367.5,113,H
2023-04-15T12:22:52Z,8op4movi,serial-reaction-time,1,R,1,1,47,2134,0,4,386.5,134,L
2023-04-15T12:22:52Z,8op4movi,serial-reaction-time,1,P,1,1,48,2134,0,4,384.3999999994412,344,H
2023-04-15T12:22:53Z,8op4movi,serial-reaction-time,1,R,1,1,49,2134,0,2,374.8999999994412,442,H
2023-04-15T12:22:53Z,8op4movi,serial-reaction-time,1,P,1,1,50,2134,0,2,338.20000000018626,422,H
2023-04-15T12:22:54Z,8op4movi,serial-reaction-time,1,R,1,1,51,2134,0,4,422.20000000018626,224,L
2023-04-15T12:22:54Z,8op4movi,serial-reaction-time,1,P,1,1,52,2134,0,1,343.30000000074506,241,H
2023-04-15T12:22:55Z,8op4movi,serial-reaction-time,1,R,1,1,53,2134,0,1,381,411,L
2023-04-15T12:22:55Z,8op4movi,serial-reaction-time,1,P,1,1,54,2134,0,3,546.2999999998137,113,H
2023-04-15T12:22:56Z,8op4movi,serial-reaction-time,1,R,1,1,55,2134,0,3,372.29999999981374,133,H
2023-04-15T12:22:56Z,8op4movi,serial-reaction-time,1,P,1,1,56,2134,0,4,594.7000000001863,334,H
2023-04-15T12:22:57Z,8op4movi,serial-reaction-time,1,R,1,1,57,2134,0,2,438.5999999996274,342,L
2023-04-15T12:22:57Z,8op4movi,serial-reaction-time,1,P,1,1,58,2134,0,2,317.69999999925494,422,H
2023-04-15T12:22:58Z,8op4movi,serial-reaction-time,1,R,1,1,59,2134,0,4,554.5,224,L
2023-04-15T12:22:59Z,8op4movi,serial-reaction-time,1,P,1,1,60,2134,0,1,493.0999999996274,241,H
2023-04-15T12:22:59Z,8op4movi,serial-reaction-time,1,R,1,1,61,2134,0,3,447,413,L
2023-04-15T12:23:00Z,8op4movi,serial-reaction-time,1,P,1,1,62,2134,0,3,626.7000000001863,133,H
2023-04-15T12:23:01Z,8op4movi,serial-reaction-time,1,R,1,1,63,2134,0,3,344.69999999925494,333,R
2023-04-15T12:23:01Z,8op4movi,serial-reaction-time,1,P,1,1,64,2134,0,4,393.29999999981374,334,H
2023-04-15T12:23:02Z,8op4movi,serial-reaction-time,1,R,1,1,65,2134,0,1,467.5,341,L
2023-04-15T12:23:02Z,8op4movi,serial-reaction-time,1,P,1,1,66,2134,0,2,612.3999999994412,412,H
2023-04-15T12:23:03Z,8op4movi,serial-reaction-time,NA,R,1,1,67,2134,0,3,396.29999999981374,123,H
2023-04-15T12:23:03Z,8op4movi,serial-reaction-time,1,R,1,0,67,2134,0,3,742.2999999998137,123,H
2023-04-15T12:23:04Z,8op4movi,serial-reaction-time,1,P,1,1,68,2134,0,1,404.5,231,H
2023-04-15T12:23:04Z,8op4movi,serial-reaction-time,1,R,1,1,69,2134,0,1,326.30000000074506,311,L
2023-04-15T12:23:05Z,8op4movi,serial-reaction-time,1,P,1,1,70,2134,0,3,427,113,H
2023-04-15T12:23:06Z,8op4movi,serial-reaction-time,1,R,1,1,71,2134,0,1,604.5,131,T
2023-04-15T12:23:06Z,8op4movi,serial-reaction-time,1,P,1,1,72,2134,0,4,408.29999999981374,314,H
2023-04-15T12:23:07Z,8op4movi,serial-reaction-time,NA,R,1,1,73,2134,0,3,419.3999999994412,143,H
2023-04-15T12:23:07Z,8op4movi,serial-reaction-time,1,R,1,0,73,2134,0,3,816.5999999996275,143,H
2023-04-15T12:23:08Z,8op4movi,serial-reaction-time,1,P,1,1,74,2134,0,2,488.9000000003726,432,H
2023-04-15T12:23:08Z,8op4movi,serial-reaction-time,1,R,1,1,75,2134,0,4,393.70000000018626,324,H
2023-04-15T12:23:09Z,8op4movi,serial-reaction-time,1,P,1,1,76,2134,0,1,428,241,H
2023-04-15T12:23:09Z,8op4movi,serial-reaction-time,1,R,1,1,77,2134,0,1,396.5,411,L
2023-04-15T12:23:10Z,8op4movi,serial-reaction-time,1,P,1,1,78,2134,0,3,534.0999999996275,113,H
2023-04-15T12:23:10Z,8op4movi,serial-reaction-time,NA,R,1,1,79,2134,0,3,448.0999999996274,133,H
2023-04-15T12:23:11Z,8op4movi,serial-reaction-time,1,R,1,0,79,2134,0,3,902.5999999996276,133,H
2023-04-15T12:23:12Z,8op4movi,serial-reaction-time,1,P,1,1,80,2134,0,4,545.2999999998137,334,H
2023-04-15T12:23:17Z,8op4movi,html-keyboard-response,NA,NA,NA,NA,NA,NA,NA,NA,NA,NA,NA
2023-04-15T12:23:17Z,8op4movi,html-keyboard-response,NA,NA,NA,NA,NA,NA,NA,NA,NA,NA,NA
2023-04-15T12:23:19Z,8op4movi,serial-reaction-time,1,R,2,1,1,2134,0,3,584.6000000005588,3,X
2023-04-15T12:23:20Z,8op4movi,serial-reaction-time,1,P,2,1,2,2134,0,2,446,32,X
2023-04-15T12:23:20Z,8op4movi,serial-reaction-time,1,R,2,1,3,2134,0,3,525.2000000001863,323,T
2023-04-15T12:23:21Z,8op4movi,serial-reaction-time,1,P,2,1,4,2134,0,1,482.20000000018626,231,H
2023-04-15T12:23:21Z,8op4movi,serial-reaction-time,1,R,2,1,5,2134,0,4,453.70000000018626,314,H
2023-04-15T12:23:22Z,8op4movi,serial-reaction-time,1,P,2,1,6,2134,0,3,439.30000000074506,143,H
2023-04-15T12:23:23Z,8op4movi,serial-reaction-time,1,R,2,1,7,2134,0,4,465.5999999996274,434,T
2023-04-15T12:23:23Z,8op4movi,serial-reaction-time,1,P,2,1,8,2134,0,4,347.70000000018626,344,H
2023-04-15T12:23:23Z,8op4movi,serial-reaction-time,1,R,2,1,9,2134,0,1,371.0999999996274,441,L
2023-04-15T12:23:24Z,8op4movi,serial-reaction-time,1,P,2,1,10,2134,0,2,452.79999999981374,412,H
2023-04-15T12:23:25Z,8op4movi,serial-reaction-time,1,R,2,1,11,2134,0,4,413.20000000018626,124,L
2023-04-15T12:23:25Z,8op4movi,serial-reaction-time,1,P,2,1,12,2134,0,1,408.20000000018626,241,H
2023-04-15T12:23:26Z,8op4movi,serial-reaction-time,1,R,2,1,13,2134,0,4,533.0999999996275,414,T
2023-04-15T12:23:26Z,8op4movi,serial-reaction-time,1,P,2,1,14,2134,0,3,408.79999999981374,143,H
2023-04-15T12:23:27Z,8op4movi,serial-reaction-time,1,R,2,1,15,2134,0,2,478.5,432,H
2023-04-15T12:23:27Z,8op4movi,serial-reaction-time,1,P,2,1,16,2134,0,4,440.20000000018626,324,H
2023-04-15T12:23:28Z,8op4movi,serial-reaction-time,1,R,2,1,17,2134,0,3,458.70000000018626,243,L
2023-04-15T12:23:29Z,8op4movi,serial-reaction-time,1,P,2,1,18,2134,0,2,442.70000000018626,432,H
2023-04-15T12:23:29Z,8op4movi,serial-reaction-time,1,R,2,1,19,2134,0,3,580,323,T
2023-04-15T12:23:30Z,8op4movi,serial-reaction-time,1,P,2,1,20,2134,0,1,368.0999999996274,231,H
2023-04-15T12:23:30Z,8op4movi,serial-reaction-time,1,R,2,1,21,2134,0,3,392.29999999981374,313,T
2023-04-15T12:23:31Z,8op4movi,serial-reaction-time,1,P,2,1,22,2134,0,3,375.70000000018626,133,H
2023-04-15T12:23:31Z,8op4movi,serial-reaction-time,1,R,2,1,23,2134,0,3,392,333,R
2023-04-15T12:23:32Z,8op4movi,serial-reaction-time,1,P,2,1,24,2134,0,4,358.20000000018626,334,H
2023-04-15T12:23:32Z,8op4movi,serial-reaction-time,1,R,2,1,25,2134,0,4,353.3999999994412,344,H
2023-04-15T12:23:33Z,8op4movi,serial-reaction-time,1,P,2,1,26,2134,0,2,413.4000000003726,442,H
2023-04-15T12:23:33Z,8op4movi,serial-reaction-time,1,R,2,1,27,2134,0,4,432.69999999925494,424,T
2023-04-15T12:23:34Z,8op4movi,serial-reaction-time,1,P,2,1,28,2134,0,1,377.9000000003726,241,H
2023-04-15T12:23:34Z,8op4movi,serial-reaction-time,1,R,2,1,29,2134,0,3,414.20000000018626,413,L
2023-04-15T12:23:35Z,8op4movi,serial-reaction-time,1,P,2,1,30,2134,0,3,394.0999999996274,133,H
2023-04-15T12:23:36Z,8op4movi,serial-reaction-time,1,R,2,1,31,2134,0,2,616,332,L
2023-04-15T12:23:36Z,8op4movi,serial-reaction-time,1,P,2,1,32,2134,0,4,342.70000000018626,324,H
2023-04-15T12:23:37Z,8op4movi,serial-reaction-time,1,R,2,1,33,2134,0,3,423.70000000018626,243,L
2023-04-15T12:23:37Z,8op4movi,serial-reaction-time,1,P,2,1,34,2134,0,2,430.79999999981374,432,H
2023-04-15T12:23:38Z,8op4movi,serial-reaction-time,1,R,2,1,35,2134,0,3,431.3999999994412,323,T
2023-04-15T12:23:38Z,8op4movi,serial-reaction-time,1,P,2,1,36,2134,0,1,368.20000000018626,231,H
2023-04-15T12:23:39Z,8op4movi,serial-reaction-time,1,R,2,1,37,2134,0,1,358.79999999981374,311,L
2023-04-15T12:23:39Z,8op4movi,serial-reaction-time,1,P,2,1,38,2134,0,3,398.6000000005588,113,H
2023-04-15T12:23:40Z,8op4movi,serial-reaction-time,1,R,2,1,39,2134,0,1,461.70000000018626,131,T
2023-04-15T12:23:41Z,8op4movi,serial-reaction-time,1,P,2,1,40,2134,0,4,469,314,H
2023-04-15T12:23:41Z,8op4movi,serial-reaction-time,1,R,2,1,41,2134,0,3,407.19999999925494,143,H
2023-04-15T12:23:42Z,8op4movi,serial-reaction-time,1,P,2,1,42,2134,0,2,378.5999999996274,432,H
2023-04-15T12:23:42Z,8op4movi,serial-reaction-time,1,R,2,1,43,2134,0,4,348.59999999962747,324,H
2023-04-15T12:23:43Z,8op4movi,serial-reaction-time,1,P,2,1,44,2134,0,1,393.0999999996274,241,H
2023-04-15T12:23:43Z,8op4movi,serial-reaction-time,1,R,2,1,45,2134,0,2,480,412,H
2023-04-15T12:23:44Z,8op4movi,serial-reaction-time,1,P,2,1,46,2134,0,3,389.30000000074506,123,H
2023-04-15T12:23:44Z,8op4movi,serial-reaction-time,1,R,2,1,47,2134,0,2,483.5,232,T
2023-04-15T12:23:45Z,8op4movi,serial-reaction-time,1,P,2,1,48,2134,0,4,397.5999999996274,324,H
2023-04-15T12:23:45Z,8op4movi,serial-reaction-time,NA,R,2,1,49,2134,0,1,388.0999999996274,241,H
2023-04-15T12:23:46Z,8op4movi,serial-reaction-time,1,R,2,0,49,2134,0,1,965.3999999994412,241,H
2023-04-15T12:23:47Z,8op4movi,serial-reaction-time,1,P,2,1,50,2134,0,2,505.5,412,H
2023-04-15T12:23:47Z,8op4movi,serial-reaction-time,1,R,2,1,51,2134,0,2,359,122,L
2023-04-15T12:23:48Z,8op4movi,serial-reaction-time,1,P,2,1,52,2134,0,1,474.1000000005588,221,H
2023-04-15T12:23:48Z,8op4movi,serial-reaction-time,NA,R,2,1,53,2134,0,3,386.4000000003726,213,L
2023-04-15T12:23:49Z,8op4movi,serial-reaction-time,1,R,2,0,53,2134,0,3,1119.500000000931,213,L
2023-04-15T12:23:49Z,8op4movi,serial-reaction-time,1,P,2,1,54,2134,0,3,405,133,H
2023-04-15T12:23:50Z,8op4movi,serial-reaction-time,1,R,2,1,55,2134,0,1,383.20000000018626,331,L
2023-04-15T12:23:50Z,8op4movi,serial-reaction-time,1,P,2,1,56,2134,0,4,336.29999999981374,314,H
2023-04-15T12:23:51Z,8op4movi,serial-reaction-time,1,R,2,1,57,2134,0,3,401.4000000003726,143,H
2023-04-15T12:23:51Z,8op4movi,serial-reaction-time,1,P,2,1,58,2134,0,2,399.70000000018626,432,H
2023-04-15T12:23:52Z,8op4movi,serial-reaction-time,1,R,2,1,59,2134,0,1,323.59999999962747,321,L
2023-04-15T12:23:52Z,8op4movi,serial-reaction-time,1,P,2,1,60,2134,0,1,418.6000000005588,211,H
2023-04-15T12:23:53Z,8op4movi,serial-reaction-time,1,R,2,1,61,2134,0,4,537.1999999992549,114,L
2023-04-15T12:23:54Z,8op4movi,serial-reaction-time,1,P,2,1,62,2134,0,3,341.09999999962747,143,H
2023-04-15T12:23:54Z,8op4movi,serial-reaction-time,1,R,2,1,63,2134,0,4,431.3999999994412,434,T
2023-04-15T12:23:55Z,8op4movi,serial-reaction-time,1,P,2,1,64,2134,0,4,422,344,H
2023-04-15T12:23:55Z,8op4movi,serial-reaction-time,1,R,2,1,65,2134,0,2,386.5999999996274,442,H
2023-04-15T12:23:56Z,8op4movi,serial-reaction-time,1,P,2,1,66,2134,0,2,394.20000000018626,422,H
2023-04-15T12:23:56Z,8op4movi,serial-reaction-time,1,R,2,1,67,2134,0,1,363.9000000003726,221,H
2023-04-15T12:23:57Z,8op4movi,serial-reaction-time,1,P,2,1,68,2134,0,1,315.59999999962747,211,H
2023-04-15T12:23:57Z,8op4movi,serial-reaction-time,1,R,2,1,69,2134,0,1,321.1000000005588,111,R
2023-04-15T12:23:58Z,8op4movi,serial-reaction-time,1,P,2,1,70,2134,0,3,580,113,H
2023-04-15T12:23:58Z,8op4movi,serial-reaction-time,NA,R,2,1,71,2134,0,2,378.9000000003726,132,L
2023-04-15T12:23:59Z,8op4movi,serial-reaction-time,1,R,2,0,71,2134,0,2,951.7000000001864,132,L
2023-04-15T12:23:59Z,8op4movi,serial-reaction-time,1,P,2,1,72,2134,0,4,391.5,324,H
2023-04-15T12:24:00Z,8op4movi,serial-reaction-time,1,R,2,1,73,2134,0,2,372.1000000005588,242,T
2023-04-15T12:24:00Z,8op4movi,serial-reaction-time,1,P,2,1,74,2134,0,2,336.19999999925494,422,H
2023-04-15T12:24:01Z,8op4movi,serial-reaction-time,1,R,2,1,75,2134,0,4,344.80000000074506,224,L
2023-04-15T12:24:01Z,8op4movi,serial-reaction-time,1,P,2,1,76,2134,0,1,449.20000000018626,241,H
2023-04-15T12:24:02Z,8op4movi,serial-reaction-time,1,R,2,1,77,2134,0,1,326,411,L
2023-04-15T12:24:02Z,8op4movi,serial-reaction-time,1,P,2,1,78,2134,0,3,345.3999999994412,113,H
2023-04-15T12:24:03Z,8op4movi,serial-reaction-time,1,R,2,1,79,2134,0,1,343.59999999962747,131,T
2023-04-15T12:24:03Z,8op4movi,serial-reaction-time,1,P,2,1,80,2134,0,4,368.1000000005588,314,H
2023-04-15T12:24:08Z,8op4movi,html-keyboard-response,NA,NA,NA,NA,NA,NA,NA,NA,NA,NA,NA
2023-04-15T12:24:09Z,8op4movi,html-keyboard-response,NA,NA,NA,NA,NA,NA,NA,NA,NA,NA,NA
2023-04-15T12:24:11Z,8op4movi,serial-reaction-time,1,R,3,1,1,2134,0,3,926.0999999996276,3,X
2023-04-15T12:24:11Z,8op4movi,serial-reaction-time,1,P,3,1,2,2134,0,2,399.79999999981374,32,X
2023-04-15T12:24:12Z,8op4movi,serial-reaction-time,1,R,3,1,3,2134,0,4,412.4000000003726,324,H
2023-04-15T12:24:12Z,8op4movi,serial-reaction-time,1,P,3,1,4,2134,0,1,411.30000000074506,241,H
2023-04-15T12:24:13Z,8op4movi,serial-reaction-time,1,R,3,1,5,2134,0,1,380.79999999981374,411,L
2023-04-15T12:24:14Z,8op4movi,serial-reaction-time,1,P,3,1,6,2134,0,3,562.5,113,H
2023-04-15T12:24:14Z,8op4movi,serial-reaction-time,1,R,3,1,7,2134,0,1,385.29999999981374,131,T
2023-04-15T12:24:15Z,8op4movi,serial-reaction-time,1,P,3,1,8,2134,0,4,368.9000000003726,314,H
2023-04-15T12:24:15Z,8op4movi,serial-reaction-time,1,R,3,1,9,2134,0,3,363.0999999996274,143,H
2023-04-15T12:24:16Z,8op4movi,serial-reaction-time,1,P,3,1,10,2134,0,2,399.8999999994412,432,H
2023-04-15T12:24:16Z,8op4movi,serial-reaction-time,1,R,3,1,11,2134,0,1,325.59999999962747,321,L
2023-04-15T12:24:17Z,8op4movi,serial-reaction-time,1,P,3,1,12,2134,0,1,375.5999999996274,211,H
2023-04-15T12:24:17Z,8op4movi,serial-reaction-time,1,R,3,1,13,2134,0,3,397.4000000003726,113,H
2023-04-15T12:24:18Z,8op4movi,serial-reaction-time,1,P,3,1,14,2134,0,3,433.29999999981374,133,H
2023-04-15T12:24:18Z,8op4movi,serial-reaction-time,1,R,3,1,15,2134,0,1,386.5999999996274,331,L
2023-04-15T12:24:19Z,8op4movi,serial-reaction-time,1,P,3,1,16,2134,0,4,377.79999999981374,314,H
2023-04-15T12:24:19Z,8op4movi,serial-reaction-time,1,R,3,1,17,2134,0,1,713.2000000001863,141,T
2023-04-15T12:24:20Z,8op4movi,serial-reaction-time,1,P,3,1,18,2134,0,2,571.5999999996275,412,H
2023-04-15T12:24:21Z,8op4movi,serial-reaction-time,1,R,3,1,19,2134,0,3,356.79999999981374,123,H
2023-04-15T12:24:21Z,8op4movi,serial-reaction-time,1,P,3,1,20,2134,0,1,390.5999999996274,231,H
2023-04-15T12:24:22Z,8op4movi,serial-reaction-time,1,R,3,1,21,2134,0,3,371.4000000003726,313,T
2023-04-15T12:24:22Z,8op4movi,serial-reaction-time,1,P,3,1,22,2134,0,3,592.7999999998137,133,H
2023-04-15T12:24:23Z,8op4movi,serial-reaction-time,NA,R,3,1,23,2134,0,2,344.90000000037253,332,L
2023-04-15T12:24:23Z,8op4movi,serial-reaction-time,1,R,3,0,23,2134,0,2,898.0999999996275,332,L
2023-04-15T12:24:24Z,8op4movi,serial-reaction-time,1,P,3,1,24,2134,0,4,393.0999999996274,324,H
2023-04-15T12:24:24Z,8op4movi,serial-reaction-time,1,R,3,1,25,2134,0,4,369.6000000005588,244,L
2023-04-15T12:24:25Z,8op4movi,serial-reaction-time,1,P,3,1,26,2134,0,2,373.20000000018626,442,H
2023-04-15T12:24:25Z,8op4movi,serial-reaction-time,1,R,3,1,27,2134,0,1,376.29999999981374,421,L
2023-04-15T12:24:26Z,8op4movi,serial-reaction-time,1,P,3,1,28,2134,0,1,339.5,211,H
2023-04-15T12:24:26Z,8op4movi,serial-reaction-time,NA,R,3,1,29,2134,0,1,371.9000000003726,111,R
2023-04-15T12:24:27Z,8op4movi,serial-reaction-time,1,R,3,0,29,2134,0,1,948.8000000007452,111,R
2023-04-15T12:24:28Z,8op4movi,serial-reaction-time,1,P,3,1,30,2134,0,3,437.69999999925494,113,H
2023-04-15T12:24:28Z,8op4movi,serial-reaction-time,1,R,3,1,31,2134,0,1,407.1000000005588,131,T
2023-04-15T12:24:29Z,8op4movi,serial-reaction-time,1,P,3,1,32,2134,0,4,423.29999999981374,314,H
2023-04-15T12:24:29Z,8op4movi,serial-reaction-time,1,R,3,1,33,2134,0,2,381.5999999996274,142,L
2023-04-15T12:24:30Z,8op4movi,serial-reaction-time,1,P,3,1,34,2134,0,2,385.79999999981374,422,H
2023-04-15T12:24:30Z,8op4movi,serial-reaction-time,1,R,3,1,35,2134,0,2,346.3999999994412,222,R
2023-04-15T12:24:31Z,8op4movi,serial-reaction-time,1,P,3,1,36,2134,0,1,479.6000000005588,221,H
2023-04-15T12:24:31Z,8op4movi,serial-reaction-time,1,R,3,1,37,2134,0,3,526.7000000001863,213,L
2023-04-15T12:24:32Z,8op4movi,serial-reaction-time,1,P,3,1,38,2134,0,3,582.5999999996275,133,H
2023-04-15T12:24:33Z,8op4movi,serial-reaction-time,1,R,3,1,39,2134,0,3,364.70000000018626,333,R
2023-04-15T12:24:33Z,8op4movi,serial-reaction-time,1,P,3,1,40,2134,0,4,439.1000000005588,334,H
2023-04-15T12:24:34Z,8op4movi,serial-reaction-time,1,R,3,1,41,2134,0,3,594.6999999992549,343,T
2023-04-15T12:24:35Z,8op4movi,serial-reaction-time,1,P,3,1,42,2134,0,2,632.3000000007451,432,H
2023-04-15T12:24:35Z,8op4movi,serial-reaction-time,1,R,3,1,43,2134,0,1,343.09999999962747,321,L
2023-04-15T12:24:36Z,8op4movi,serial-reaction-time,1,P,3,1,44,2134,0,1,337.80000000074506,211,H
2023-04-15T12:24:36Z,8op4movi,serial-reaction-time,1,R,3,1,45,2134,0,3,388.8999999994412,113,H
2023-04-15T12:24:37Z,8op4movi,serial-reaction-time,1,P,3,1,46,2134,0,3,461.19999999925494,133,H
2023-04-15T12:24:37Z,8op4movi,serial-reaction-time,1,R,3,1,47,2134,0,4,442.6000000005588,334,H
2023-04-15T12:24:38Z,8op4movi,serial-reaction-time,1,P,3,1,48,2134,0,4,335.79999999981374,344,H
2023-04-15T12:24:38Z,8op4movi,serial-reaction-time,1,R,3,1,49,2134,0,1,487.5999999996274,441,L
2023-04-15T12:24:39Z,8op4movi,serial-reaction-time,1,P,3,1,50,2134,0,2,459.4000000003726,412,H
2023-04-15T12:24:40Z,8op4movi,serial-reaction-time,1,R,3,1,51,2134,0,2,492.20000000018626,122,L
2023-04-15T12:24:40Z,8op4movi,serial-reaction-time,1,P,3,1,52,2134,0,1,491,221,H
2023-04-15T12:24:41Z,8op4movi,serial-reaction-time,1,R,3,1,53,2134,0,2,683.8999999994412,212,T
2023-04-15T12:24:41Z,8op4movi,serial-reaction-time,1,P,3,1,54,2134,0,3,435.5,123,H
2023-04-15T12:24:42Z,8op4movi,serial-reaction-time,1,R,3,1,55,2134,0,4,365.4000000003726,234,L
2023-04-15T12:24:42Z,8op4movi,serial-reaction-time,1,P,3,1,56,2134,0,4,365.4000000003726,344,H
2023-04-15T12:24:43Z,8op4movi,serial-reaction-time,1,R,3,1,57,2134,0,4,341.1000000005588,444,R
2023-04-15T12:24:44Z,8op4movi,serial-reaction-time,1,P,3,1,58,2134,0,2,520.6000000005588,442,H
2023-04-15T12:24:44Z,8op4movi,serial-reaction-time,1,R,3,1,59,2134,0,2,366.70000000018626,422,H
2023-04-15T12:24:45Z,8op4movi,serial-reaction-time,1,P,3,1,60,2134,0,1,380.5,221,H
2023-04-15T12:24:45Z,8op4movi,serial-reaction-time,NA,R,3,1,61,2134,0,3,455.3999999994412,213,L
2023-04-15T12:24:46Z,8op4movi,serial-reaction-time,1,R,3,0,61,2134,0,3,918.2999999998136,213,L
2023-04-15T12:24:46Z,8op4movi,serial-reaction-time,1,P,3,1,62,2134,0,3,344.70000000018626,133,H
2023-04-15T12:24:47Z,8op4movi,serial-reaction-time,1,R,3,1,63,2134,0,2,498.4000000003726,332,L
2023-04-15T12:24:47Z,8op4movi,serial-reaction-time,1,P,3,1,64,2134,0,4,356.5,324,H
2023-04-15T12:24:48Z,8op4movi,serial-reaction-time,1,R,3,1,65,2134,0,2,372.1000000005588,242,T
2023-04-15T12:24:48Z,8op4movi,serial-reaction-time,1,P,3,1,66,2134,0,2,355.59999999962747,422,H
2023-04-15T12:24:49Z,8op4movi,serial-reaction-time,NA,R,3,1,67,2134,0,3,406.1000000005588,223,L
2023-04-15T12:24:49Z,8op4movi,serial-reaction-time,1,R,3,0,67,2134,0,3,839.4000000003725,223,L
2023-04-15T12:24:50Z,8op4movi,serial-reaction-time,1,P,3,1,68,2134,0,1,501.5,231,H
2023-04-15T12:24:50Z,8op4movi,serial-reaction-time,1,R,3,1,69,2134,0,3,459.9000000003726,313,T
2023-04-15T12:24:51Z,8op4movi,serial-reaction-time,1,P,3,1,70,2134,0,3,353.6000000005588,133,H
2023-04-15T12:24:51Z,8op4movi,serial-reaction-time,1,R,3,1,71,2134,0,2,447.70000000018626,332,L
2023-04-15T12:24:52Z,8op4movi,serial-reaction-time,1,P,3,1,72,2134,0,4,392.70000000018626,324,H
2023-04-15T12:24:53Z,8op4movi,serial-reaction-time,1,R,3,1,73,2134,0,3,545,243,L
2023-04-15T12:24:53Z,8op4movi,serial-reaction-time,1,P,3,1,74,2134,0,2,342.8999999994412,432,H
2023-04-15T12:24:54Z,8op4movi,serial-reaction-time,1,R,3,1,75,2134,0,1,312.29999999981374,321,L
2023-04-15T12:24:54Z,8op4movi,serial-reaction-time,1,P,3,1,76,2134,0,1,376.20000000018626,211,H
2023-04-15T12:24:55Z,8op4movi,serial-reaction-time,NA,R,3,1,77,2134,0,2,390.5,112,L
2023-04-15T12:24:55Z,8op4movi,serial-reaction-time,1,R,3,0,77,2134,0,2,847.6000000005588,112,L
2023-04-15T12:24:56Z,8op4movi,serial-reaction-time,1,P,3,1,78,2134,0,3,407.0999999996274,123,H
2023-04-15T12:24:56Z,8op4movi,serial-reaction-time,1,R,3,1,79,2134,0,2,410.4000000003726,232,T
2023-04-15T12:24:57Z,8op4movi,serial-reaction-time,1,P,3,1,80,2134,0,4,404.79999999981374,324,H
2023-04-15T12:25:02Z,8op4movi,html-keyboard-response,NA,NA,NA,NA,NA,NA,NA,NA,NA,NA,NA
2023-04-15T12:25:02Z,8op4movi,html-keyboard-response,NA,NA,NA,NA,NA,NA,NA,NA,NA,NA,NA
2023-04-15T12:25:04Z,8op4movi,serial-reaction-time,1,R,4,1,1,2134,0,1,679,1,X
2023-04-15T12:25:05Z,8op4movi,serial-reaction-time,1,P,4,1,2,2134,0,2,552.3000000007451,12,X
2023-04-15T12:25:05Z,8op4movi,serial-reaction-time,1,R,4,1,3,2134,0,1,391.1000000005588,121,T
2023-04-15T12:25:06Z,8op4movi,serial-reaction-time,1,P,4,1,4,2134,0,1,350,211,H
2023-04-15T12:25:06Z,8op4movi,serial-reaction-time,NA,R,4,1,5,2134,0,2,427,112,L
2023-04-15T12:25:07Z,8op4movi,serial-reaction-time,1,R,4,0,5,2134,0,2,860.2000000001863,112,L
2023-04-15T12:25:07Z,8op4movi,serial-reaction-time,1,P,4,1,6,2134,0,3,408.5999999996274,123,H
2023-04-15T12:25:08Z,8op4movi,serial-reaction-time,1,R,4,1,7,2134,0,4,371.4000000003726,234,L
2023-04-15T12:25:08Z,8op4movi,serial-reaction-time,1,P,4,1,8,2134,0,4,341.30000000074506,344,H
2023-04-15T12:25:09Z,8op4movi,serial-reaction-time,1,R,4,1,9,2134,0,1,404.69999999925494,441,L
2023-04-15T12:25:09Z,8op4movi,serial-reaction-time,1,P,4,1,10,2134,0,2,441.70000000018626,412,H
2023-04-15T12:25:10Z,8op4movi,serial-reaction-time,1,R,4,1,11,2134,0,1,414.0999999996274,121,T
2023-04-15T12:25:10Z,8op4movi,serial-reaction-time,1,P,4,1,12,2134,0,1,358.40000000037253,211,H
2023-04-15T12:25:11Z,8op4movi,serial-reaction-time,1,R,4,1,13,2134,0,3,435.20000000018626,113,H
2023-04-15T12:25:11Z,8op4movi,serial-reaction-time,1,P,4,1,14,2134,0,3,348.90000000037253,133,H
2023-04-15T12:25:12Z,8op4movi,serial-reaction-time,1,R,4,1,15,2134,0,3,359.5,333,R
2023-04-15T12:25:13Z,8op4movi,serial-reaction-time,1,P,4,1,16,2134,0,4,506.5,334,H
2023-04-15T12:25:13Z,8op4movi,serial-reaction-time,1,R,4,1,17,2134,0,1,454.70000000018626,341,L
2023-04-15T12:25:14Z,8op4movi,serial-reaction-time,1,P,4,1,18,2134,0,2,419.19999999925494,412,H
2023-04-15T12:25:14Z,8op4movi,serial-reaction-time,1,R,4,1,19,2134,0,2,345.1000000005588,122,L
2023-04-15T12:25:15Z,8op4movi,serial-reaction-time,1,P,4,1,20,2134,0,1,412.1000000005588,221,H
2023-04-15T12:25:15Z,8op4movi,serial-reaction-time,1,R,4,1,21,2134,0,4,611.4000000003725,214,L
2023-04-15T12:25:16Z,8op4movi,serial-reaction-time,1,P,4,1,22,2134,0,3,572.5,143,H
2023-04-15T12:25:17Z,8op4movi,serial-reaction-time,1,R,4,1,23,2134,0,1,457.70000000018626,431,L
2023-04-15T12:25:17Z,8op4movi,serial-reaction-time,1,P,4,1,24,2134,0,4,546,314,H
2023-04-15T12:25:18Z,8op4movi,serial-reaction-time,1,R,4,1,25,2134,0,2,446.29999999981374,142,L
2023-04-15T12:25:18Z,8op4movi,serial-reaction-time,1,P,4,1,26,2134,0,2,383,422,H
2023-04-15T12:25:19Z,8op4movi,serial-reaction-time,1,R,4,1,27,2134,0,2,398.8999999994412,222,R
2023-04-15T12:25:20Z,8op4movi,serial-reaction-time,1,P,4,1,28,2134,0,1,417.5999999996274,221,H
2023-04-15T12:25:20Z,8op4movi,serial-reaction-time,1,R,4,1,29,2134,0,3,721.7999999998137,213,L
2023-04-15T12:25:21Z,8op4movi,serial-reaction-time,1,P,4,1,30,2134,0,3,393.3999999994412,133,H
2023-04-15T12:25:21Z,8op4movi,serial-reaction-time,1,R,4,1,31,2134,0,1,407.9000000003726,331,L
2023-04-15T12:25:22Z,8op4movi,serial-reaction-time,1,P,4,1,32,2134,0,4,396.80000000074506,314,H
2023-04-15T12:25:23Z,8op4movi,serial-reaction-time,1,R,4,1,33,2134,0,1,515.5999999996275,141,T
2023-04-15T12:25:23Z,8op4movi,serial-reaction-time,1,P,4,1,34,2134,0,2,472.0999999996274,412,H
2023-04-15T12:25:24Z,8op4movi,serial-reaction-time,1,R,4,1,35,2134,0,3,405.5999999996274,123,H
2023-04-15T12:25:24Z,8op4movi,serial-reaction-time,1,P,4,1,36,2134,0,1,387,231,H
2023-04-15T12:25:25Z,8op4movi,serial-reaction-time,1,R,4,1,37,2134,0,1,514.8000000007451,311,L
2023-04-15T12:25:25Z,8op4movi,serial-reaction-time,1,P,4,1,38,2134,0,3,449.8999999994412,113,H
2023-04-15T12:25:26Z,8op4movi,serial-reaction-time,1,R,4,1,39,2134,0,2,687.9000000003725,132,L
2023-04-15T12:25:27Z,8op4movi,serial-reaction-time,1,P,4,1,40,2134,0,4,417.5999999996274,324,H
2023-04-15T12:25:27Z,8op4movi,serial-reaction-time,1,R,4,1,41,2134,0,3,516.5,243,L
2023-04-15T12:25:28Z,8op4movi,serial-reaction-time,1,P,4,1,42,2134,0,2,468,432,H
2023-04-15T12:25:29Z,8op4movi,serial-reaction-time,1,R,4,1,43,2134,0,2,471.5,322,L
2023-04-15T12:25:29Z,8op4movi,serial-reaction-time,1,P,4,1,44,2134,0,1,495,221,H
2023-04-15T12:25:30Z,8op4movi,serial-reaction-time,1,R,4,1,45,2134,0,2,396.9000000003726,212,T
2023-04-15T12:25:30Z,8op4movi,serial-reaction-time,1,P,4,1,46,2134,0,3,559.9000000003725,123,H
2023-04-15T12:25:31Z,8op4movi,serial-reaction-time,1,R,4,1,47,2134,0,1,379.1000000005588,231,H
2023-04-15T12:25:32Z,8op4movi,serial-reaction-time,1,P,4,1,48,2134,0,4,632.8000000007451,314,H
2023-04-15T12:25:32Z,8op4movi,serial-reaction-time,1,R,4,1,49,2134,0,1,475.79999999981374,141,T
2023-04-15T12:25:33Z,8op4movi,serial-reaction-time,1,P,4,1,50,2134,0,2,424.0999999996274,412,H
2023-04-15T12:25:33Z,8op4movi,serial-reaction-time,1,R,4,1,51,2134,0,3,424.3999999994412,123,H
2023-04-15T12:25:34Z,8op4movi,serial-reaction-time,1,P,4,1,52,2134,0,1,394.6000000005588,231,H
2023-04-15T12:25:35Z,8op4movi,serial-reaction-time,1,R,4,1,53,2134,0,1,456.29999999981374,311,L
2023-04-15T12:25:35Z,8op4movi,serial-reaction-time,1,P,4,1,54,2134,0,3,356.09999999962747,113,H
2023-04-15T12:25:36Z,8op4movi,serial-reaction-time,1,R,4,1,55,2134,0,4,519.4000000003725,134,L
2023-04-15T12:25:36Z,8op4movi,serial-reaction-time,1,P,4,1,56,2134,0,4,452.5,344,H
2023-04-15T12:25:37Z,8op4movi,serial-reaction-time,1,R,4,1,57,2134,0,4,323.29999999981374,444,R
2023-04-15T12:25:37Z,8op4movi,serial-reaction-time,1,P,4,1,58,2134,0,2,443.5,442,H
2023-04-15T12:25:38Z,8op4movi,serial-reaction-time,1,R,4,1,59,2134,0,3,531.2999999998137,423,L
2023-04-15T12:25:38Z,8op4movi,serial-reaction-time,1,P,4,1,60,2134,0,1,373.20000000018626,231,H
2023-04-15T12:25:39Z,8op4movi,serial-reaction-time,1,R,4,1,61,2134,0,4,371,314,H
2023-04-15T12:25:39Z,8op4movi,serial-reaction-time,1,P,4,1,62,2134,0,3,417.70000000018626,143,H
2023-04-15T12:25:40Z,8op4movi,serial-reaction-time,1,R,4,1,63,2134,0,2,379.70000000018626,432,H
2023-04-15T12:25:40Z,8op4movi,serial-reaction-time,1,P,4,1,64,2134,0,4,367.1000000005588,324,H
2023-04-15T12:25:41Z,8op4movi,serial-reaction-time,1,R,4,1,65,2134,0,3,507.6000000005588,243,L
2023-04-15T12:25:42Z,8op4movi,serial-reaction-time,1,P,4,1,66,2134,0,2,374.4000000003726,432,H
2023-04-15T12:25:42Z,8op4movi,serial-reaction-time,1,R,4,1,67,2134,0,1,453.5999999996274,321,L
2023-04-15T12:25:43Z,8op4movi,serial-reaction-time,1,P,4,1,68,2134,0,1,449.79999999981374,211,H
2023-04-15T12:25:43Z,8op4movi,serial-reaction-time,1,R,4,1,69,2134,0,3,417.20000000018626,113,H
2023-04-15T12:25:44Z,8op4movi,serial-reaction-time,1,P,4,1,70,2134,0,3,634.6000000005588,133,H
2023-04-15T12:25:45Z,8op4movi,serial-reaction-time,1,R,4,1,71,2134,0,2,402.1000000005588,332,L
2023-04-15T12:25:45Z,8op4movi,serial-reaction-time,1,P,4,1,72,2134,0,4,366.29999999981374,324,H
2023-04-15T12:25:46Z,8op4movi,serial-reaction-time,1,R,4,1,73,2134,0,1,401.5,241,H
2023-04-15T12:25:46Z,8op4movi,serial-reaction-time,1,P,4,1,74,2134,0,2,548.3999999994412,412,H
2023-04-15T12:25:47Z,8op4movi,serial-reaction-time,1,R,4,1,75,2134,0,1,518.9000000003725,121,T
2023-04-15T12:25:47Z,8op4movi,serial-reaction-time,1,P,4,1,76,2134,0,1,373.30000000074506,211,H
2023-04-15T12:25:48Z,8op4movi,serial-reaction-time,1,R,4,1,77,2134,0,3,386.6000000005588,113,H
2023-04-15T12:25:49Z,8op4movi,serial-reaction-time,1,P,4,1,78,2134,0,3,560.7000000001863,133,H
2023-04-15T12:25:49Z,8op4movi,serial-reaction-time,1,R,4,1,79,2134,0,3,472.20000000018626,333,R
2023-04-15T12:25:50Z,8op4movi,serial-reaction-time,1,P,4,1,80,2134,0,4,444.4000000003726,334,H
2023-04-15T12:25:55Z,8op4movi,html-keyboard-response,NA,NA,NA,NA,NA,NA,NA,NA,NA,NA,NA
2023-04-15T12:25:56Z,8op4movi,html-keyboard-response,NA,NA,NA,NA,NA,NA,NA,NA,NA,NA,NA
2023-04-15T12:25:57Z,8op4movi,serial-reaction-time,1,R,5,1,1,2134,0,1,378,1,X
2023-04-15T12:25:57Z,8op4movi,serial-reaction-time,1,P,5,1,2,2134,0,2,451.70000000018626,12,X
2023-04-15T12:25:58Z,8op4movi,serial-reaction-time,1,R,5,1,3,2134,0,1,373,121,T
2023-04-15T12:25:58Z,8op4movi,serial-reaction-time,1,P,5,1,4,2134,0,1,351.70000000018626,211,H
2023-04-15T12:25:59Z,8op4movi,serial-reaction-time,1,R,5,1,5,2134,0,3,409.70000000018626,113,H
2023-04-15T12:25:59Z,8op4movi,serial-reaction-time,1,P,5,1,6,2134,0,3,338.6000000005588,133,H
2023-04-15T12:26:00Z,8op4movi,serial-reaction-time,1,R,5,1,7,2134,0,1,418.0999999996274,331,L
2023-04-15T12:26:01Z,8op4movi,serial-reaction-time,1,P,5,1,8,2134,0,4,448.29999999981374,314,H
2023-04-15T12:26:01Z,8op4movi,serial-reaction-time,1,R,5,1,9,2134,0,4,358.29999999981374,144,L
2023-04-15T12:26:02Z,8op4movi,serial-reaction-time,1,P,5,1,10,2134,0,2,413.79999999981374,442,H
2023-04-15T12:26:02Z,8op4movi,serial-reaction-time,1,R,5,1,11,2134,0,1,390.6000000005588,421,L
2023-04-15T12:26:03Z,8op4movi,serial-reaction-time,1,P,5,1,12,2134,0,1,348.09999999962747,211,H
2023-04-15T12:26:03Z,8op4movi,serial-reaction-time,1,R,5,1,13,2134,0,4,445.5,114,L
2023-04-15T12:26:04Z,8op4movi,serial-reaction-time,1,P,5,1,14,2134,0,3,448.6000000005588,143,H
2023-04-15T12:26:04Z,8op4movi,serial-reaction-time,1,R,5,1,15,2134,0,2,408.3999999994412,432,H
2023-04-15T12:26:05Z,8op4movi,serial-reaction-time,1,P,5,1,16,2134,0,4,398.6000000005588,324,H
2023-04-15T12:26:05Z,8op4movi,serial-reaction-time,1,R,5,1,17,2134,0,3,433.80000000074506,243,L
2023-04-15T12:26:06Z,8op4movi,serial-reaction-time,1,P,5,1,18,2134,0,2,449.4000000003726,432,H
2023-04-15T12:26:07Z,8op4movi,serial-reaction-time,1,R,5,1,19,2134,0,4,436.3999999994412,324,H
2023-04-15T12:26:07Z,8op4movi,serial-reaction-time,1,P,5,1,20,2134,0,1,493.70000000018626,241,H
2023-04-15T12:26:08Z,8op4movi,serial-reaction-time,1,R,5,1,21,2134,0,4,487.79999999981374,414,T
2023-04-15T12:26:08Z,8op4movi,serial-reaction-time,1,P,5,1,22,2134,0,3,457.9000000003726,143,H
2023-04-15T12:26:09Z,8op4movi,serial-reaction-time,1,R,5,1,23,2134,0,2,420.5999999996274,432,H
2023-04-15T12:26:09Z,8op4movi,serial-reaction-time,1,P,5,1,24,2134,0,4,378.79999999981374,324,H
2023-04-15T12:26:10Z,8op4movi,serial-reaction-time,1,R,5,1,25,2134,0,1,474.9000000003726,241,H
2023-04-15T12:26:11Z,8op4movi,serial-reaction-time,1,P,5,1,26,2134,0,2,503.9000000003726,412,H
2023-04-15T12:26:11Z,8op4movi,serial-reaction-time,1,R,5,1,27,2134,0,3,544.9000000003725,123,H
2023-04-15T12:26:12Z,8op4movi,serial-reaction-time,1,P,5,1,28,2134,0,1,442.0999999996274,231,H
2023-04-15T12:26:12Z,8op4movi,serial-reaction-time,1,R,5,1,29,2134,0,2,482.4000000003726,312,L
2023-04-15T12:26:13Z,8op4movi,serial-reaction-time,1,P,5,1,30,2134,0,3,449.5,123,H
2023-04-15T12:26:14Z,8op4movi,serial-reaction-time,1,R,5,1,31,2134,0,1,380.29999999981374,231,H
2023-04-15T12:26:14Z,8op4movi,serial-reaction-time,1,P,5,1,32,2134,0,4,449,314,H
2023-04-15T12:26:15Z,8op4movi,serial-reaction-time,1,R,5,1,33,2134,0,1,590.8000000007451,141,T
2023-04-15T12:26:15Z,8op4movi,serial-reaction-time,1,P,5,1,34,2134,0,2,443.70000000018626,412,H
2023-04-15T12:26:16Z,8op4movi,serial-reaction-time,1,R,5,1,35,2134,0,2,464.70000000018626,122,L
2023-04-15T12:26:17Z,8op4movi,serial-reaction-time,1,P,5,1,36,2134,0,1,451.79999999981374,221,H
2023-04-15T12:26:17Z,8op4movi,serial-reaction-time,1,R,5,1,37,2134,0,4,521.8999999994412,214,L
2023-04-15T12:26:18Z,8op4movi,serial-reaction-time,1,P,5,1,38,2134,0,3,412.5,143,H
2023-04-15T12:26:18Z,8op4movi,serial-reaction-time,1,R,5,1,39,2134,0,4,505.5999999996274,434,T
2023-04-15T12:26:19Z,8op4movi,serial-reaction-time,1,P,5,1,40,2134,0,4,417.5,344,H
2023-04-15T12:26:20Z,8op4movi,serial-reaction-time,1,R,5,1,41,2134,0,3,481.70000000018626,443,L
2023-04-15T12:26:20Z,8op4movi,serial-reaction-time,1,P,5,1,42,2134,0,2,432.29999999981374,432,H
2023-04-15T12:26:21Z,8op4movi,serial-reaction-time,NA,R,5,1,43,2134,0,3,339.59999999962747,323,T
2023-04-15T12:26:21Z,8op4movi,serial-reaction-time,1,R,5,0,43,2134,0,3,967,323,T
2023-04-15T12:26:22Z,8op4movi,serial-reaction-time,1,P,5,1,44,2134,0,1,370.4000000003726,231,H
2023-04-15T12:26:22Z,8op4movi,serial-reaction-time,1,R,5,1,45,2134,0,4,372.1000000005588,314,H
2023-04-15T12:26:23Z,8op4movi,serial-reaction-time,1,P,5,1,46,2134,0,3,440.1000000005588,143,H
2023-04-15T12:26:23Z,8op4movi,serial-reaction-time,1,R,5,1,47,2134,0,2,403.20000000018626,432,H
2023-04-15T12:26:24Z,8op4movi,serial-reaction-time,1,P,5,1,48,2134,0,4,362.0999999996274,324,H
2023-04-15T12:26:24Z,8op4movi,serial-reaction-time,1,R,5,1,49,2134,0,2,496.9000000003726,242,T
2023-04-15T12:26:25Z,8op4movi,serial-reaction-time,1,P,5,1,50,2134,0,2,367.5,422,H
2023-04-15T12:26:25Z,8op4movi,serial-reaction-time,1,R,5,1,51,2134,0,4,386.3999999994412,224,L
2023-04-15T12:26:26Z,8op4movi,serial-reaction-time,1,P,5,1,52,2134,0,1,396.8999999994412,241,H
2023-04-15T12:26:26Z,8op4movi,serial-reaction-time,1,R,5,1,53,2134,0,3,442.5,413,L
2023-04-15T12:26:27Z,8op4movi,serial-reaction-time,1,P,5,1,54,2134,0,3,422.69999999925494,133,H
2023-04-15T12:26:28Z,8op4movi,serial-reaction-time,1,R,5,1,55,2134,0,4,434.29999999981374,334,H
2023-04-15T12:26:28Z,8op4movi,serial-reaction-time,1,P,5,1,56,2134,0,4,370.9000000003726,344,H
2023-04-15T12:26:29Z,8op4movi,serial-reaction-time,1,R,5,1,57,2134,0,3,457.70000000018626,443,L
2023-04-15T12:26:29Z,8op4movi,serial-reaction-time,1,P,5,1,58,2134,0,2,401.70000000018626,432,H
2023-04-15T12:26:30Z,8op4movi,serial-reaction-time,1,R,5,1,59,2134,0,2,400.20000000018626,322,L
2023-04-15T12:26:30Z,8op4movi,serial-reaction-time,1,P,5,1,60,2134,0,1,573.8999999994412,221,H
2023-04-15T12:26:31Z,8op4movi,serial-reaction-time,NA,R,5,1,61,2134,0,3,408.9000000003726,213,L
2023-04-15T12:26:31Z,8op4movi,serial-reaction-time,1,R,5,0,61,2134,0,3,818.5,213,L
2023-04-15T12:26:32Z,8op4movi,serial-reaction-time,1,P,5,1,62,2134,0,3,365.1000000005588,133,H
2023-04-15T12:26:33Z,8op4movi,serial-reaction-time,1,R,5,1,63,2134,0,2,720.7000000001863,332,L
2023-04-15T12:26:33Z,8op4movi,serial-reaction-time,1,P,5,1,64,2134,0,4,430.19999999925494,324,H
2023-04-15T12:26:34Z,8op4movi,serial-reaction-time,1,R,5,1,65,2134,0,2,586.5999999996275,242,T
2023-04-15T12:26:34Z,8op4movi,serial-reaction-time,1,P,5,1,66,2134,0,2,388.70000000018626,422,H
2023-04-15T12:26:35Z,8op4movi,serial-reaction-time,1,R,5,1,67,2134,0,4,372.29999999981374,224,L
2023-04-15T12:26:36Z,8op4movi,serial-reaction-time,1,P,5,1,68,2134,0,1,412,241,H
2023-04-15T12:26:36Z,8op4movi,serial-reaction-time,1,R,5,1,69,2134,0,2,538,412,H
2023-04-15T12:26:37Z,8op4movi,serial-reaction-time,1,P,5,1,70,2134,0,3,469.29999999981374,123,H
2023-04-15T12:26:37Z,8op4movi,serial-reaction-time,1,R,5,1,71,2134,0,3,382.70000000018626,233,L
2023-04-15T12:26:38Z,8op4movi,serial-reaction-time,1,P,5,1,72,2134,0,4,369.8999999994412,334,H
2023-04-15T12:26:38Z,8op4movi,serial-reaction-time,1,R,5,1,73,2134,0,1,398.5999999996274,341,L
2023-04-15T12:26:39Z,8op4movi,serial-reaction-time,1,P,5,1,74,2134,0,2,442.6000000005588,412,H
2023-04-15T12:26:39Z,8op4movi,serial-reaction-time,1,R,5,1,75,2134,0,1,462.20000000018626,121,T
2023-04-15T12:26:40Z,8op4movi,serial-reaction-time,1,P,5,1,76,2134,0,1,372.4000000003726,211,H
2023-04-15T12:26:41Z,8op4movi,serial-reaction-time,1,R,5,1,77,2134,0,4,575,114,L
2023-04-15T12:26:41Z,8op4movi,serial-reaction-time,1,P,5,1,78,2134,0,3,572.2999999998137,143,H
2023-04-15T12:26:42Z,8op4movi,serial-reaction-time,1,R,5,1,79,2134,0,2,485.80000000074506,432,H
2023-04-15T12:26:42Z,8op4movi,serial-reaction-time,1,P,5,1,80,2134,0,4,383.70000000018626,324,H
2023-04-15T12:26:47Z,8op4movi,html-keyboard-response,NA,NA,NA,NA,NA,NA,NA,NA,NA,NA,NA
2023-04-15T12:26:51Z,8op4movi,html-keyboard-response,NA,NA,NA,NA,NA,NA,NA,NA,NA,NA,NA
2023-04-15T12:26:52Z,8op4movi,fullscreen,NA,NA,NA,NA,NA,NA,NA,NA,NA,NA,NA
2023-04-15T14:10:27Z,bjgjzktt,fullscreen,NA,NA,NA,NA,NA,NA,NA,NA,NA,NA,NA
2023-04-15T14:10:29Z,bjgjzktt,html-keyboard-response,NA,NA,NA,NA,NA,NA,NA,NA,NA,NA,NA
2023-04-15T14:10:30Z,bjgjzktt,serial-reaction-time,1,R,1,1,1,3142,0,3,589,3,X
2023-04-15T14:10:31Z,bjgjzktt,serial-reaction-time,1,P,1,1,2,3142,0,3,298,33,X
2023-04-15T14:10:31Z,bjgjzktt,serial-reaction-time,1,R,1,1,3,3142,0,3,346,333,R
2023-04-15T14:10:32Z,bjgjzktt,serial-reaction-time,1,P,1,1,4,3142,0,1,394,331,H
2023-04-15T14:10:32Z,bjgjzktt,serial-reaction-time,1,R,1,1,5,3142,0,3,354,313,T
2023-04-15T14:10:33Z,bjgjzktt,serial-reaction-time,1,P,1,1,6,3142,0,4,386,134,H
2023-04-15T14:10:33Z,bjgjzktt,serial-reaction-time,1,R,1,1,7,3142,0,2,379,342,L
2023-04-15T14:10:34Z,bjgjzktt,serial-reaction-time,1,P,1,1,8,3142,0,2,322,422,H
2023-04-15T14:10:34Z,bjgjzktt,serial-reaction-time,1,R,1,1,9,3142,0,3,353,223,H
2023-04-15T14:10:35Z,bjgjzktt,serial-reaction-time,1,P,1,1,10,3142,0,3,347,233,H
2023-04-15T14:10:35Z,bjgjzktt,serial-reaction-time,1,R,1,1,11,3142,0,2,377,332,L
2023-04-15T14:10:36Z,bjgjzktt,serial-reaction-time,1,P,1,1,12,3142,0,1,468,321,H
2023-04-15T14:10:36Z,bjgjzktt,serial-reaction-time,1,R,1,1,13,3142,0,3,355,213,H
2023-04-15T14:10:37Z,bjgjzktt,serial-reaction-time,1,P,1,1,14,3142,0,4,423,134,H
2023-04-15T14:10:37Z,bjgjzktt,serial-reaction-time,NA,R,1,1,15,3142,0,1,372,341,H
2023-04-15T14:10:38Z,bjgjzktt,serial-reaction-time,1,R,1,0,15,3142,0,1,770,341,H
2023-04-15T14:10:39Z,bjgjzktt,serial-reaction-time,1,P,1,1,16,3142,0,2,522,412,H
2023-04-15T14:10:39Z,bjgjzktt,serial-reaction-time,1,R,1,1,17,3142,0,3,390,123,L
2023-04-15T14:10:40Z,bjgjzktt,serial-reaction-time,1,P,1,1,18,3142,0,3,354,233,H
2023-04-15T14:10:40Z,bjgjzktt,serial-reaction-time,1,R,1,1,19,3142,0,1,391,331,H
2023-04-15T14:10:41Z,bjgjzktt,serial-reaction-time,1,P,1,1,20,3142,0,1,376,311,H
2023-04-15T14:10:41Z,bjgjzktt,serial-reaction-time,1,R,1,1,21,3142,0,1,352,111,R
2023-04-15T14:10:42Z,bjgjzktt,serial-reaction-time,1,P,1,1,22,3142,0,4,462,114,H
2023-04-15T14:10:42Z,bjgjzktt,serial-reaction-time,1,R,1,1,23,3142,0,1,424,141,T
2023-04-15T14:10:43Z,bjgjzktt,serial-reaction-time,1,P,1,1,24,3142,0,2,460,412,H
2023-04-15T14:10:43Z,bjgjzktt,serial-reaction-time,1,R,1,1,25,3142,0,2,385,122,L
2023-04-15T14:10:44Z,bjgjzktt,serial-reaction-time,1,P,1,1,26,3142,0,3,414,223,H
2023-04-15T14:10:44Z,bjgjzktt,serial-reaction-time,1,R,1,1,27,3142,0,1,393,231,L
2023-04-15T14:10:45Z,bjgjzktt,serial-reaction-time,1,P,1,1,28,3142,0,1,326,311,H
2023-04-15T14:10:45Z,bjgjzktt,serial-reaction-time,1,R,1,1,29,3142,0,2,488,112,L
2023-04-15T14:10:46Z,bjgjzktt,serial-reaction-time,1,P,1,1,30,3142,0,4,401,124,H
2023-04-15T14:10:47Z,bjgjzktt,serial-reaction-time,1,R,1,1,31,3142,0,4,365,244,L
2023-04-15T14:10:47Z,bjgjzktt,serial-reaction-time,1,P,1,1,32,3142,0,2,339,442,H
2023-04-15T14:10:47Z,bjgjzktt,serial-reaction-time,1,R,1,1,33,3142,0,2,315,422,H
2023-04-15T14:10:48Z,bjgjzktt,serial-reaction-time,1,P,1,1,34,3142,0,3,378,223,H
2023-04-15T14:10:49Z,bjgjzktt,serial-reaction-time,1,R,1,1,35,3142,0,2,425,232,T
2023-04-15T14:10:49Z,bjgjzktt,serial-reaction-time,1,P,1,1,36,3142,0,1,505,321,H
2023-04-15T14:10:50Z,bjgjzktt,serial-reaction-time,1,R,1,1,37,3142,0,1,315,211,L
2023-04-15T14:10:50Z,bjgjzktt,serial-reaction-time,1,P,1,1,38,3142,0,4,385,114,H
2023-04-15T14:10:51Z,bjgjzktt,serial-reaction-time,1,R,1,1,39,3142,0,3,438,143,L
2023-04-15T14:10:51Z,bjgjzktt,serial-reaction-time,1,P,1,1,40,3142,0,2,387,432,H
2023-04-15T14:10:52Z,bjgjzktt,serial-reaction-time,1,R,1,1,41,3142,0,3,418,323,T
2023-04-15T14:10:52Z,bjgjzktt,serial-reaction-time,1,P,1,1,42,3142,0,3,414,233,H
2023-04-15T14:10:53Z,bjgjzktt,serial-reaction-time,1,R,1,1,43,3142,0,3,430,333,R
2023-04-15T14:10:53Z,bjgjzktt,serial-reaction-time,1,P,1,1,44,3142,0,1,383,331,H
2023-04-15T14:10:54Z,bjgjzktt,serial-reaction-time,1,R,1,1,45,3142,0,3,453,313,T
2023-04-15T14:10:55Z,bjgjzktt,serial-reaction-time,1,P,1,1,46,3142,0,4,466,134,H
2023-04-15T14:10:55Z,bjgjzktt,serial-reaction-time,1,R,1,1,47,3142,0,1,502,341,H
2023-04-15T14:10:56Z,bjgjzktt,serial-reaction-time,1,P,1,1,48,3142,0,2,505,412,H
2023-04-15T14:10:56Z,bjgjzktt,serial-reaction-time,1,R,1,1,49,3142,0,3,418,123,L
2023-04-15T14:10:57Z,bjgjzktt,serial-reaction-time,1,P,1,1,50,3142,0,3,318,233,H
2023-04-15T14:10:57Z,bjgjzktt,serial-reaction-time,1,R,1,1,51,3142,0,3,382,333,R
2023-04-15T14:10:58Z,bjgjzktt,serial-reaction-time,1,P,1,1,52,3142,0,1,386,331,H
2023-04-15T14:10:58Z,bjgjzktt,serial-reaction-time,1,R,1,1,53,3142,0,1,302,311,H
2023-04-15T14:10:59Z,bjgjzktt,serial-reaction-time,1,P,1,1,54,3142,0,4,406,114,H
2023-04-15T14:10:59Z,bjgjzktt,serial-reaction-time,1,R,1,1,55,3142,0,4,319,144,H
2023-04-15T14:11:00Z,bjgjzktt,serial-reaction-time,1,P,1,1,56,3142,0,2,414,442,H
2023-04-15T14:11:01Z,bjgjzktt,serial-reaction-time,1,R,1,1,57,3142,0,1,514,421,L
2023-04-15T14:11:01Z,bjgjzktt,serial-reaction-time,1,P,1,1,58,3142,0,3,434,213,H
2023-04-15T14:11:02Z,bjgjzktt,serial-reaction-time,1,R,1,1,59,3142,0,3,364,133,L
2023-04-15T14:11:02Z,bjgjzktt,serial-reaction-time,1,P,1,1,60,3142,0,1,577,331,H
2023-04-15T14:11:03Z,bjgjzktt,serial-reaction-time,1,R,1,1,61,3142,0,3,419,313,T
2023-04-15T14:11:03Z,bjgjzktt,serial-reaction-time,1,P,1,1,62,3142,0,4,505,134,H
2023-04-15T14:11:04Z,bjgjzktt,serial-reaction-time,1,R,1,1,63,3142,0,3,531,343,T
2023-04-15T14:11:05Z,bjgjzktt,serial-reaction-time,1,P,1,1,64,3142,0,2,330,432,H
2023-04-15T14:11:05Z,bjgjzktt,serial-reaction-time,1,R,1,1,65,3142,0,1,379,321,H
2023-04-15T14:11:06Z,bjgjzktt,serial-reaction-time,1,P,1,1,66,3142,0,3,430,213,H
2023-04-15T14:11:06Z,bjgjzktt,serial-reaction-time,1,R,1,1,67,3142,0,4,398,134,H
2023-04-15T14:11:07Z,bjgjzktt,serial-reaction-time,1,P,1,1,68,3142,0,1,417,341,H
2023-04-15T14:11:07Z,bjgjzktt,serial-reaction-time,1,R,1,1,69,3142,0,4,542,414,T
2023-04-15T14:11:08Z,bjgjzktt,serial-reaction-time,1,P,1,1,70,3142,0,4,405,144,H
2023-04-15T14:11:09Z,bjgjzktt,serial-reaction-time,1,R,1,1,71,3142,0,2,429,442,H
2023-04-15T14:11:09Z,bjgjzktt,serial-reaction-time,1,P,1,1,72,3142,0,2,364,422,H
2023-04-15T14:11:09Z,bjgjzktt,serial-reaction-time,NA,R,1,1,73,3142,0,3,324,223,H
2023-04-15T14:11:10Z,bjgjzktt,serial-reaction-time,1,R,1,0,73,3142,0,3,655,223,H
2023-04-15T14:11:10Z,bjgjzktt,serial-reaction-time,1,P,1,1,74,3142,0,3,303,233,H
2023-04-15T14:11:11Z,bjgjzktt,serial-reaction-time,1,R,1,1,75,3142,0,4,414,334,L
2023-04-15T14:11:11Z,bjgjzktt,serial-reaction-time,1,P,1,1,76,3142,0,1,410,341,H
2023-04-15T14:11:12Z,bjgjzktt,serial-reaction-time,1,R,1,1,77,3142,0,4,436,414,T
2023-04-15T14:11:12Z,bjgjzktt,serial-reaction-time,1,P,1,1,78,3142,0,4,344,144,H
2023-04-15T14:11:13Z,bjgjzktt,serial-reaction-time,1,R,1,1,79,3142,0,2,340,442,H
2023-04-15T14:11:13Z,bjgjzktt,serial-reaction-time,1,P,1,1,80,3142,0,2,304,422,H
2023-04-15T14:11:18Z,bjgjzktt,html-keyboard-response,NA,NA,NA,NA,NA,NA,NA,NA,NA,NA,NA
2023-04-15T14:11:35Z,bjgjzktt,html-keyboard-response,NA,NA,NA,NA,NA,NA,NA,NA,NA,NA,NA
2023-04-15T14:11:37Z,bjgjzktt,serial-reaction-time,1,R,2,1,1,3142,0,2,780,2,X
2023-04-15T14:11:37Z,bjgjzktt,serial-reaction-time,1,P,2,1,2,3142,0,3,444,23,X
2023-04-15T14:11:38Z,bjgjzktt,serial-reaction-time,1,R,2,1,3,3142,0,2,424,232,T
2023-04-15T14:11:39Z,bjgjzktt,serial-reaction-time,1,P,2,1,4,3142,0,1,454,321,H
2023-04-15T14:11:39Z,bjgjzktt,serial-reaction-time,1,R,2,1,5,3142,0,2,478,212,T
2023-04-15T14:11:40Z,bjgjzktt,serial-reaction-time,1,P,2,1,6,3142,0,4,442,124,H
2023-04-15T14:11:40Z,bjgjzktt,serial-reaction-time,1,R,2,1,7,3142,0,3,426,243,H
2023-04-15T14:11:41Z,bjgjzktt,serial-reaction-time,1,P,2,1,8,3142,0,2,357,432,H
2023-04-15T14:11:41Z,bjgjzktt,serial-reaction-time,1,R,2,1,9,3142,0,3,401,323,T
2023-04-15T14:11:42Z,bjgjzktt,serial-reaction-time,1,P,2,1,10,3142,0,3,366,233,H
2023-04-15T14:11:42Z,bjgjzktt,serial-reaction-time,1,R,2,1,11,3142,0,2,369,332,L
2023-04-15T14:11:43Z,bjgjzktt,serial-reaction-time,1,P,2,1,12,3142,0,1,456,321,H
2023-04-15T14:11:44Z,bjgjzktt,serial-reaction-time,NA,R,2,1,13,3142,0,2,437,212,T
2023-04-15T14:11:44Z,bjgjzktt,serial-reaction-time,1,R,2,0,13,3142,0,2,485,212,T
2023-04-15T14:11:44Z,bjgjzktt,serial-reaction-time,1,P,2,1,14,3142,0,4,490,124,H
2023-04-15T14:11:45Z,bjgjzktt,serial-reaction-time,1,R,2,1,15,3142,0,4,309,244,L
2023-04-15T14:11:45Z,bjgjzktt,serial-reaction-time,1,P,2,1,16,3142,0,2,330,442,H
2023-04-15T14:11:46Z,bjgjzktt,serial-reaction-time,1,R,2,1,17,3142,0,1,352,421,L
2023-04-15T14:11:46Z,bjgjzktt,serial-reaction-time,1,P,2,1,18,3142,0,3,368,213,H
2023-04-15T14:11:47Z,bjgjzktt,serial-reaction-time,1,R,2,1,19,3142,0,1,426,131,T
2023-04-15T14:11:47Z,bjgjzktt,serial-reaction-time,1,P,2,1,20,3142,0,1,318,311,H
2023-04-15T14:11:48Z,bjgjzktt,serial-reaction-time,1,R,2,1,21,3142,0,2,420,112,L
2023-04-15T14:11:48Z,bjgjzktt,serial-reaction-time,1,P,2,1,22,3142,0,4,392,124,H
2023-04-15T14:11:49Z,bjgjzktt,serial-reaction-time,1,R,2,1,23,3142,0,1,412,241,L
2023-04-15T14:11:49Z,bjgjzktt,serial-reaction-time,1,P,2,1,24,3142,0,2,401,412,H
2023-04-15T14:11:50Z,bjgjzktt,serial-reaction-time,1,R,2,1,25,3142,0,1,655,121,T
2023-04-15T14:11:51Z,bjgjzktt,serial-reaction-time,1,P,2,1,26,3142,0,3,417,213,H
2023-04-15T14:11:51Z,bjgjzktt,serial-reaction-time,1,R,2,1,27,3142,0,4,430,134,H
2023-04-15T14:11:52Z,bjgjzktt,serial-reaction-time,1,P,2,1,28,3142,0,1,460,341,H
2023-04-15T14:11:52Z,bjgjzktt,serial-reaction-time,1,R,2,1,29,3142,0,4,432,414,T
2023-04-15T14:11:53Z,bjgjzktt,serial-reaction-time,1,P,2,1,30,3142,0,4,330,144,H
2023-04-15T14:11:53Z,bjgjzktt,serial-reaction-time,1,R,2,1,31,3142,0,4,352,444,R
2023-04-15T14:11:54Z,bjgjzktt,serial-reaction-time,1,P,2,1,32,3142,0,2,408,442,H
2023-04-15T14:11:54Z,bjgjzktt,serial-reaction-time,1,R,2,1,33,3142,0,2,322,422,H
2023-04-15T14:11:55Z,bjgjzktt,serial-reaction-time,1,P,2,1,34,3142,0,3,563,223,H
2023-04-15T14:11:56Z,bjgjzktt,serial-reaction-time,1,R,2,1,35,3142,0,4,437,234,L
2023-04-15T14:11:56Z,bjgjzktt,serial-reaction-time,1,P,2,1,36,3142,0,1,404,341,H
2023-04-15T14:11:57Z,bjgjzktt,serial-reaction-time,1,R,2,1,37,3142,0,3,535,413,L
2023-04-15T14:11:57Z,bjgjzktt,serial-reaction-time,1,P,2,1,38,3142,0,4,445,134,H
2023-04-15T14:11:58Z,bjgjzktt,serial-reaction-time,1,R,2,1,39,3142,0,3,505,343,T
2023-04-15T14:11:59Z,bjgjzktt,serial-reaction-time,1,P,2,1,40,3142,0,2,529,432,H
2023-04-15T14:11:59Z,bjgjzktt,serial-reaction-time,1,R,2,1,41,3142,0,3,370,323,T
2023-04-15T14:12:00Z,bjgjzktt,serial-reaction-time,1,P,2,1,42,3142,0,3,333,233,H
2023-04-15T14:12:00Z,bjgjzktt,serial-reaction-time,1,R,2,1,43,3142,0,4,410,334,L
2023-04-15T14:12:01Z,bjgjzktt,serial-reaction-time,1,P,2,1,44,3142,0,1,441,341,H
2023-04-15T14:12:01Z,bjgjzktt,serial-reaction-time,1,R,2,1,45,3142,0,1,315,411,L
2023-04-15T14:12:02Z,bjgjzktt,serial-reaction-time,1,P,2,1,46,3142,0,4,453,114,H
2023-04-15T14:12:02Z,bjgjzktt,serial-reaction-time,1,R,2,1,47,3142,0,2,467,142,L
2023-04-15T14:12:03Z,bjgjzktt,serial-reaction-time,1,P,2,1,48,3142,0,2,347,422,H
2023-04-15T14:12:03Z,bjgjzktt,serial-reaction-time,1,R,2,1,49,3142,0,2,347,222,R
2023-04-15T14:12:04Z,bjgjzktt,serial-reaction-time,1,P,2,1,50,3142,0,3,426,223,H
2023-04-15T14:12:04Z,bjgjzktt,serial-reaction-time,1,R,2,1,51,3142,0,3,294,233,H
2023-04-15T14:12:05Z,bjgjzktt,serial-reaction-time,1,P,2,1,52,3142,0,1,373,331,H
2023-04-15T14:12:05Z,bjgjzktt,serial-reaction-time,1,R,2,1,53,3142,0,3,404,313,T
2023-04-15T14:12:06Z,bjgjzktt,serial-reaction-time,1,P,2,1,54,3142,0,4,416,134,H
2023-04-15T14:12:06Z,bjgjzktt,serial-reaction-time,1,R,2,1,55,3142,0,4,352,344,L
2023-04-15T14:12:07Z,bjgjzktt,serial-reaction-time,1,P,2,1,56,3142,0,2,405,442,H
2023-04-15T14:12:08Z,bjgjzktt,serial-reaction-time,1,R,2,1,57,3142,0,1,556,421,L
2023-04-15T14:12:08Z,bjgjzktt,serial-reaction-time,1,P,2,1,58,3142,0,3,573,213,H
2023-04-15T14:12:09Z,bjgjzktt,serial-reaction-time,1,R,2,1,59,3142,0,4,556,134,H
2023-04-15T14:12:10Z,bjgjzktt,serial-reaction-time,1,P,2,1,60,3142,0,1,606,341,H
2023-04-15T14:12:10Z,bjgjzktt,serial-reaction-time,1,R,2,1,61,3142,0,2,409,412,H
2023-04-15T14:12:11Z,bjgjzktt,serial-reaction-time,1,P,2,1,62,3142,0,4,415,124,H
2023-04-15T14:12:11Z,bjgjzktt,serial-reaction-time,NA,R,2,1,63,3142,0,3,366,243,H
2023-04-15T14:12:12Z,bjgjzktt,serial-reaction-time,1,R,2,0,63,3142,0,3,658,243,H
2023-04-15T14:12:12Z,bjgjzktt,serial-reaction-time,1,P,2,1,64,3142,0,2,364,432,H
2023-04-15T14:12:13Z,bjgjzktt,serial-reaction-time,1,R,2,1,65,3142,0,2,335,322,L
2023-04-15T14:12:13Z,bjgjzktt,serial-reaction-time,1,P,2,1,66,3142,0,3,451,223,H
2023-04-15T14:12:14Z,bjgjzktt,serial-reaction-time,1,R,2,1,67,3142,0,1,480,231,L
2023-04-15T14:12:14Z,bjgjzktt,serial-reaction-time,1,P,2,1,68,3142,0,1,322,311,H
2023-04-15T14:12:15Z,bjgjzktt,serial-reaction-time,1,R,2,1,69,3142,0,1,464,111,R
2023-04-15T14:12:15Z,bjgjzktt,serial-reaction-time,1,P,2,1,70,3142,0,4,440,114,H
2023-04-15T14:12:16Z,bjgjzktt,serial-reaction-time,1,R,2,1,71,3142,0,4,242,144,H
2023-04-15T14:12:16Z,bjgjzktt,serial-reaction-time,1,P,2,1,72,3142,0,2,340,442,H
2023-04-15T14:12:17Z,bjgjzktt,serial-reaction-time,1,R,2,1,73,3142,0,2,284,422,H
2023-04-15T14:12:17Z,bjgjzktt,serial-reaction-time,1,P,2,1,74,3142,0,3,376,223,H
2023-04-15T14:12:18Z,bjgjzktt,serial-reaction-time,NA,R,2,1,75,3142,0,1,292,231,L
2023-04-15T14:12:18Z,bjgjzktt,serial-reaction-time,NA,R,2,0,75,3142,0,1,648,231,L
2023-04-15T14:12:18Z,bjgjzktt,serial-reaction-time,1,R,2,0,75,3142,0,1,847,231,L
2023-04-15T14:12:19Z,bjgjzktt,serial-reaction-time,1,P,2,1,76,3142,0,1,292,311,H
2023-04-15T14:12:19Z,bjgjzktt,serial-reaction-time,1,R,2,1,77,3142,0,2,625,112,L
2023-04-15T14:12:20Z,bjgjzktt,serial-reaction-time,1,P,2,1,78,3142,0,4,391,124,H
2023-04-15T14:12:21Z,bjgjzktt,serial-reaction-time,1,R,2,1,79,3142,0,1,902,241,L
2023-04-15T14:12:22Z,bjgjzktt,serial-reaction-time,NA,P,2,1,80,3142,0,2,464,412,H
