datetime,id,trial_type,correct,p_or_r,block,first_response,trial_number,sequence,is_practice,correct_pos,cumulative_rt,actual_triplet,triplet_type
2023-04-27T23:45:48Z,yk3unkzo,fullscreen,NA,NA,NA,NA,NA,NA,NA,NA,NA,NA,NA
2023-04-27T23:45:50Z,yk3unkzo,html-keyboard-response,NA,NA,NA,NA,NA,NA,NA,NA,NA,NA,NA
2023-04-27T23:45:52Z,yk3unkzo,serial-reaction-time,1,R,1,1,1,4123,0,4,479.6000000014901,4,X
2023-04-27T23:45:52Z,yk3unkzo,serial-reaction-time,1,P,1,1,2,4123,0,4,317.80000000074506,44,X
2023-04-27T23:45:53Z,yk3unkzo,serial-reaction-time,1,R,1,1,3,4123,0,1,489.80000000074506,441,H
2023-04-27T23:45:53Z,yk3unkzo,serial-reaction-time,1,P,1,1,4,4123,0,1,264,411,H
2023-04-27T23:45:54Z,yk3unkzo,serial-reaction-time,1,R,1,1,5,4123,0,4,332.90000000037253,114,L
2023-04-27T23:45:54Z,yk3unkzo,serial-reaction-time,1,P,1,1,6,4123,0,2,372,142,H
2023-04-27T23:45:55Z,yk3unkzo,serial-reaction-time,1,R,1,1,7,4123,0,4,292.5,424,T
2023-04-27T23:45:55Z,yk3unkzo,serial-reaction-time,1,P,1,1,8,4123,0,3,339.2999999988824,243,H
2023-04-27T23:45:56Z,yk3unkzo,serial-reaction-time,1,R,1,1,9,4123,0,4,329.40000000037253,434,T
2023-04-27T23:45:56Z,yk3unkzo,serial-reaction-time,1,P,1,1,10,4123,0,4,366,344,H
2023-04-27T23:45:57Z,yk3unkzo,serial-reaction-time,1,R,1,1,11,4123,0,4,240.40000000037253,444,R
2023-04-27T23:45:57Z,yk3unkzo,serial-reaction-time,1,P,1,1,12,4123,0,1,375.5,441,H
2023-04-27T23:45:58Z,yk3unkzo,serial-reaction-time,NA,R,1,1,13,4123,0,3,344.19999999925494,413,L
2023-04-27T23:45:59Z,yk3unkzo,serial-reaction-time,1,R,1,0,13,4123,0,3,1416.699999999255,413,L
2023-04-27T23:45:59Z,yk3unkzo,serial-reaction-time,1,P,1,1,14,4123,0,2,555,132,H
2023-04-27T23:46:00Z,yk3unkzo,serial-reaction-time,1,R,1,1,15,4123,0,2,244.19999999925497,322,L
2023-04-27T23:46:02Z,yk3unkzo,serial-reaction-time,1,P,1,1,16,4123,0,3,2376.5,223,H
2023-04-27T23:46:03Z,yk3unkzo,serial-reaction-time,1,R,1,1,17,4123,0,4,423.9000000003726,234,L
2023-04-27T23:46:03Z,yk3unkzo,serial-reaction-time,1,P,1,1,18,4123,0,4,287.30000000074506,344,H
2023-04-27T23:46:04Z,yk3unkzo,serial-reaction-time,1,R,1,1,19,4123,0,1,348,441,H
2023-04-27T23:46:04Z,yk3unkzo,serial-reaction-time,1,P,1,1,20,4123,0,1,205.30000000074503,411,H
2023-04-27T23:46:04Z,yk3unkzo,serial-reaction-time,1,R,1,1,21,4123,0,1,273.90000000037253,111,R
2023-04-27T23:46:05Z,yk3unkzo,serial-reaction-time,1,P,1,1,22,4123,0,2,313.5,112,H
2023-04-27T23:46:05Z,yk3unkzo,serial-reaction-time,1,R,1,1,23,4123,0,2,258.30000000074506,122,H
2023-04-27T23:46:06Z,yk3unkzo,serial-reaction-time,1,P,1,1,24,4123,0,3,291,223,H
2023-04-27T23:46:06Z,yk3unkzo,serial-reaction-time,1,R,1,1,25,4123,0,3,238.09999999962747,233,H
2023-04-27T23:46:07Z,yk3unkzo,serial-reaction-time,1,P,1,1,26,4123,0,4,377.4000000003726,334,H
2023-04-27T23:46:07Z,yk3unkzo,serial-reaction-time,1,R,1,1,27,4123,0,1,358.2000000011176,341,L
2023-04-27T23:46:07Z,yk3unkzo,serial-reaction-time,1,P,1,1,28,4123,0,1,185.90000000037253,411,H
2023-04-27T23:46:08Z,yk3unkzo,serial-reaction-time,1,R,1,1,29,4123,0,3,314.30000000074506,113,L
2023-04-27T23:46:09Z,yk3unkzo,serial-reaction-time,1,P,1,1,30,4123,0,2,448,132,H
2023-04-27T23:46:09Z,yk3unkzo,serial-reaction-time,1,R,1,1,31,4123,0,4,411.30000000074506,324,H
2023-04-27T23:46:10Z,yk3unkzo,serial-reaction-time,1,P,1,1,32,4123,0,3,315.8999999985099,243,H
2023-04-27T23:46:10Z,yk3unkzo,serial-reaction-time,NA,R,1,1,33,4123,0,2,271.40000000037253,432,L
2023-04-27T23:46:10Z,yk3unkzo,serial-reaction-time,1,R,1,0,33,4123,0,2,570.8000000007451,432,L
2023-04-27T23:46:11Z,yk3unkzo,serial-reaction-time,1,P,1,1,34,4123,0,4,366.30000000074506,324,H
2023-04-27T23:46:11Z,yk3unkzo,serial-reaction-time,1,R,1,1,35,4123,0,4,325,244,L
2023-04-27T23:46:12Z,yk3unkzo,serial-reaction-time,1,P,1,1,36,4123,0,1,395.19999999925494,441,H
2023-04-27T23:46:12Z,yk3unkzo,serial-reaction-time,1,R,1,1,37,4123,0,4,357.09999999962747,414,T
2023-04-27T23:46:13Z,yk3unkzo,serial-reaction-time,1,P,1,1,38,4123,0,2,349.69999999925494,142,H
2023-04-27T23:46:13Z,yk3unkzo,serial-reaction-time,1,R,1,1,39,4123,0,2,245.30000000074503,422,L
2023-04-27T23:46:13Z,yk3unkzo,serial-reaction-time,NA,P,1,1,40,4123,0,3,315.30000000074506,223,H
2023-04-27T23:46:14Z,yk3unkzo,serial-reaction-time,1,P,1,0,40,4123,0,3,665.8000000007451,223,H
2023-04-27T23:46:14Z,yk3unkzo,serial-reaction-time,1,R,1,1,41,4123,0,2,366.30000000074506,232,T
2023-04-27T23:46:15Z,yk3unkzo,serial-reaction-time,1,P,1,1,42,4123,0,4,354.5,324,H
2023-04-27T23:46:15Z,yk3unkzo,serial-reaction-time,1,R,1,1,43,4123,0,3,408.19999999925494,243,H
2023-04-27T23:46:16Z,yk3unkzo,serial-reaction-time,1,P,1,1,44,4123,0,1,542,431,H
2023-04-27T23:46:17Z,yk3unkzo,serial-reaction-time,1,R,1,1,45,4123,0,4,377.69999999925494,314,H
2023-04-27T23:46:17Z,yk3unkzo,serial-reaction-time,1,P,1,1,46,4123,0,2,381.69999999925494,142,H
2023-04-27T23:46:18Z,yk3unkzo,serial-reaction-time,NA,R,1,1,47,4123,0,1,322.09999999962747,421,H
2023-04-27T23:46:18Z,yk3unkzo,serial-reaction-time,1,R,1,0,47,4123,0,1,725.4000000003725,421,H
2023-04-27T23:46:19Z,yk3unkzo,serial-reaction-time,1,P,1,1,48,4123,0,3,472.0999999996274,213,H
2023-04-27T23:46:19Z,yk3unkzo,serial-reaction-time,1,R,1,1,49,4123,0,2,365.5,132,H
2023-04-27T23:46:19Z,yk3unkzo,serial-reaction-time,1,P,1,1,50,4123,0,4,320.1000000014901,324,H
2023-04-27T23:46:20Z,yk3unkzo,serial-reaction-time,1,R,1,1,51,4123,0,1,471.19999999925494,241,L
2023-04-27T23:46:20Z,yk3unkzo,serial-reaction-time,1,P,1,1,52,4123,0,1,280.6000000014901,411,H
2023-04-27T23:46:21Z,yk3unkzo,serial-reaction-time,1,R,1,1,53,4123,0,2,375.5,112,H
2023-04-27T23:46:21Z,yk3unkzo,serial-reaction-time,1,P,1,1,54,4123,0,2,232.80000000074503,122,H
2023-04-27T23:46:22Z,yk3unkzo,serial-reaction-time,1,R,1,1,55,4123,0,2,274.59999999962747,222,R
2023-04-27T23:46:22Z,yk3unkzo,serial-reaction-time,1,P,1,1,56,4123,0,3,360.80000000074506,223,H
2023-04-27T23:46:23Z,yk3unkzo,serial-reaction-time,1,R,1,1,57,4123,0,3,239,233,H
2023-04-27T23:46:23Z,yk3unkzo,serial-reaction-time,1,P,1,1,58,4123,0,4,364.80000000074506,334,H
2023-04-27T23:46:24Z,yk3unkzo,serial-reaction-time,1,R,1,1,59,4123,0,4,280.7000000011176,344,H
2023-04-27T23:46:24Z,yk3unkzo,serial-reaction-time,1,P,1,1,60,4123,0,1,340.90000000037253,441,H
2023-04-27T23:46:24Z,yk3unkzo,serial-reaction-time,1,R,1,1,61,4123,0,1,277.69999999925494,411,H
2023-04-27T23:46:25Z,yk3unkzo,serial-reaction-time,1,P,1,1,62,4123,0,2,338,112,H
2023-04-27T23:46:25Z,yk3unkzo,serial-reaction-time,1,R,1,1,63,4123,0,4,364.80000000074506,124,L
2023-04-27T23:46:26Z,yk3unkzo,serial-reaction-time,1,P,1,1,64,4123,0,3,463.3999999985099,243,H
2023-04-27T23:46:27Z,yk3unkzo,serial-reaction-time,1,R,1,1,65,4123,0,4,399.4000000003726,434,T
2023-04-27T23:46:27Z,yk3unkzo,serial-reaction-time,1,P,1,1,66,4123,0,4,323.8999999985099,344,H
2023-04-27T23:46:27Z,yk3unkzo,serial-reaction-time,1,R,1,1,67,4123,0,4,310.69999999925494,444,R
2023-04-27T23:46:28Z,yk3unkzo,serial-reaction-time,1,P,1,1,68,4123,0,1,326.1000000014901,441,H
2023-04-27T23:46:28Z,yk3unkzo,serial-reaction-time,1,R,1,1,69,4123,0,3,402,413,L
2023-04-27T23:46:29Z,yk3unkzo,serial-reaction-time,1,P,1,1,70,4123,0,2,377,132,H
2023-04-27T23:46:29Z,yk3unkzo,serial-reaction-time,1,R,1,1,71,4123,0,1,450.0999999996274,321,L
2023-04-27T23:46:30Z,yk3unkzo,serial-reaction-time,1,P,1,1,72,4123,0,3,304.80000000074506,213,H
2023-04-27T23:46:30Z,yk3unkzo,serial-reaction-time,1,R,1,1,73,4123,0,4,392.2999999988824,134,L
2023-04-27T23:46:31Z,yk3unkzo,serial-reaction-time,1,P,1,1,74,4123,0,4,274.1000000014901,344,H
2023-04-27T23:46:31Z,yk3unkzo,serial-reaction-time,NA,R,1,1,75,4123,0,2,345.69999999925494,442,L
2023-04-27T23:46:32Z,yk3unkzo,serial-reaction-time,1,R,1,0,75,4123,0,2,656.5999999977648,442,L
2023-04-27T23:46:32Z,yk3unkzo,serial-reaction-time,NA,P,1,1,76,4123,0,1,314.19999999925494,421,H
2023-04-27T23:46:32Z,yk3unkzo,serial-reaction-time,1,P,1,0,76,4123,0,1,666.6999999992549,421,H
2023-04-27T23:46:33Z,yk3unkzo,serial-reaction-time,1,R,1,1,77,4123,0,3,363.5999999996274,213,H
2023-04-27T23:46:33Z,yk3unkzo,serial-reaction-time,1,P,1,1,78,4123,0,2,411.7999999988824,132,H
2023-04-27T23:46:34Z,yk3unkzo,serial-reaction-time,1,R,1,1,79,4123,0,2,312.09999999962747,322,L
2023-04-27T23:46:35Z,yk3unkzo,serial-reaction-time,1,P,1,1,80,4123,0,3,572.6999999992549,223,H
2023-04-27T23:46:40Z,yk3unkzo,html-keyboard-response,NA,NA,NA,NA,NA,NA,NA,NA,NA,NA,NA
2023-04-27T23:46:40Z,yk3unkzo,html-keyboard-response,NA,NA,NA,NA,NA,NA,NA,NA,NA,NA,NA
2023-04-27T23:46:42Z,yk3unkzo,serial-reaction-time,1,R,2,1,1,4123,0,2,459.2000000011176,2,X
2023-04-27T23:46:42Z,yk3unkzo,serial-reaction-time,1,P,2,1,2,4123,0,4,350,24,X
2023-04-27T23:46:43Z,yk3unkzo,serial-reaction-time,1,R,2,1,3,4123,0,1,422.0999999996274,241,L
2023-04-27T23:46:43Z,yk3unkzo,serial-reaction-time,1,P,2,1,4,4123,0,1,308.7000000011176,411,H
2023-04-27T23:46:44Z,yk3unkzo,serial-reaction-time,1,R,2,1,5,4123,0,2,373.5999999996274,112,H
2023-04-27T23:46:44Z,yk3unkzo,serial-reaction-time,1,P,2,1,6,4123,0,2,273.40000000037253,122,H
2023-04-27T23:46:45Z,yk3unkzo,serial-reaction-time,1,R,2,1,7,4123,0,2,301.69999999925494,222,R
2023-04-27T23:46:45Z,yk3unkzo,serial-reaction-time,1,P,2,1,8,4123,0,3,458.5999999996274,223,H
2023-04-27T23:46:46Z,yk3unkzo,serial-reaction-time,1,R,2,1,9,4123,0,2,398.30000000074506,232,T
2023-04-27T23:46:46Z,yk3unkzo,serial-reaction-time,1,P,2,1,10,4123,0,4,390.30000000074506,324,H
2023-04-27T23:46:47Z,yk3unkzo,serial-reaction-time,1,R,2,1,11,4123,0,1,405.4000000003726,241,L
2023-04-27T23:46:47Z,yk3unkzo,serial-reaction-time,1,P,2,1,12,4123,0,1,285.40000000037253,411,H
2023-04-27T23:46:48Z,yk3unkzo,serial-reaction-time,NA,R,2,1,13,4123,0,2,393.19999999925494,112,H
2023-04-27T23:46:48Z,yk3unkzo,serial-reaction-time,1,R,2,0,13,4123,0,2,669.6999999992549,112,H
2023-04-27T23:46:48Z,yk3unkzo,serial-reaction-time,1,P,2,1,14,4123,0,2,316.7999999988824,122,H
2023-04-27T23:46:49Z,yk3unkzo,serial-reaction-time,1,R,2,1,15,4123,0,3,294.09999999962747,223,H
2023-04-27T23:46:49Z,yk3unkzo,serial-reaction-time,1,P,2,1,16,4123,0,3,281,233,H
2023-04-27T23:46:50Z,yk3unkzo,serial-reaction-time,1,R,2,1,17,4123,0,3,289.09999999962747,333,R
2023-04-27T23:46:50Z,yk3unkzo,serial-reaction-time,1,P,2,1,18,4123,0,4,308.09999999962747,334,H
2023-04-27T23:46:51Z,yk3unkzo,serial-reaction-time,1,R,2,1,19,4123,0,1,367,341,L
2023-04-27T23:46:51Z,yk3unkzo,serial-reaction-time,1,P,2,1,20,4123,0,1,230.90000000037253,411,H
2023-04-27T23:46:51Z,yk3unkzo,serial-reaction-time,1,R,2,1,21,4123,0,2,297.8999999985099,112,H
2023-04-27T23:46:52Z,yk3unkzo,serial-reaction-time,1,P,2,1,22,4123,0,2,249.7999999988824,122,H
2023-04-27T23:46:52Z,yk3unkzo,serial-reaction-time,1,R,2,1,23,4123,0,4,422.0999999996274,224,L
2023-04-27T23:46:53Z,yk3unkzo,serial-reaction-time,1,P,2,1,24,4123,0,3,357.19999999925494,243,H
2023-04-27T23:46:53Z,yk3unkzo,serial-reaction-time,1,R,2,1,25,4123,0,4,339.30000000074506,434,T
2023-04-27T23:46:54Z,yk3unkzo,serial-reaction-time,1,P,2,1,26,4123,0,4,316.7999999988824,344,H
2023-04-27T23:46:54Z,yk3unkzo,serial-reaction-time,1,R,2,1,27,4123,0,3,349.09999999962747,443,L
2023-04-27T23:46:55Z,yk3unkzo,serial-reaction-time,1,P,2,1,28,4123,0,1,358.30000000074506,431,H
2023-04-27T23:46:55Z,yk3unkzo,serial-reaction-time,1,R,2,1,29,4123,0,4,380.5999999996274,314,H
2023-04-27T23:46:56Z,yk3unkzo,serial-reaction-time,1,P,2,1,30,4123,0,2,377.6000000014901,142,H
2023-04-27T23:46:56Z,yk3unkzo,serial-reaction-time,1,R,2,1,31,4123,0,4,286.6000000014901,424,T
2023-04-27T23:46:57Z,yk3unkzo,serial-reaction-time,1,P,2,1,32,4123,0,3,461.2999999988824,243,H
2023-04-27T23:46:57Z,yk3unkzo,serial-reaction-time,1,R,2,1,33,4123,0,4,320.59999999962747,434,T
2023-04-27T23:46:58Z,yk3unkzo,serial-reaction-time,1,P,2,1,34,4123,0,4,284.40000000037253,344,H
2023-04-27T23:46:58Z,yk3unkzo,serial-reaction-time,1,R,2,1,35,4123,0,1,381.19999999925494,441,H
2023-04-27T23:46:58Z,yk3unkzo,serial-reaction-time,1,P,2,1,36,4123,0,1,228,411,H
2023-04-27T23:46:59Z,yk3unkzo,serial-reaction-time,NA,R,2,1,37,4123,0,3,334.7000000011176,113,L
2023-04-27T23:46:59Z,yk3unkzo,serial-reaction-time,1,R,2,0,37,4123,0,3,711.6000000014901,113,L
2023-04-27T23:47:00Z,yk3unkzo,serial-reaction-time,1,P,2,1,38,4123,0,2,352.09999999962747,132,H
2023-04-27T23:47:00Z,yk3unkzo,serial-reaction-time,1,R,2,1,39,4123,0,4,345,324,H
2023-04-27T23:47:01Z,yk3unkzo,serial-reaction-time,1,P,2,1,40,4123,0,3,361,243,H
2023-04-27T23:47:01Z,yk3unkzo,serial-reaction-time,1,R,2,1,41,4123,0,1,369,431,H
2023-04-27T23:47:02Z,yk3unkzo,serial-reaction-time,1,P,2,1,42,4123,0,4,385.69999999925494,314,H
2023-04-27T23:47:04Z,yk3unkzo,serial-reaction-time,1,R,2,1,43,4123,0,1,2473.199999999255,141,T
2023-04-27T23:47:05Z,yk3unkzo,serial-reaction-time,1,P,2,1,44,4123,0,1,239.5,411,H
2023-04-27T23:47:05Z,yk3unkzo,serial-reaction-time,1,R,2,1,45,4123,0,3,369.8999999985099,113,L
2023-04-27T23:47:06Z,yk3unkzo,serial-reaction-time,1,P,2,1,46,4123,0,2,404.9000000003726,132,H
2023-04-27T23:47:06Z,yk3unkzo,serial-reaction-time,1,R,2,1,47,4123,0,2,280.30000000074506,322,L
2023-04-27T23:47:07Z,yk3unkzo,serial-reaction-time,1,P,2,1,48,4123,0,3,391,223,H
2023-04-27T23:47:07Z,yk3unkzo,serial-reaction-time,1,R,2,1,49,4123,0,3,278.7000000011176,233,H
2023-04-27T23:47:08Z,yk3unkzo,serial-reaction-time,1,P,2,1,50,4123,0,4,341.30000000074506,334,H
2023-04-27T23:47:08Z,yk3unkzo,serial-reaction-time,1,R,2,1,51,4123,0,4,258.7000000011176,344,H
2023-04-27T23:47:08Z,yk3unkzo,serial-reaction-time,1,P,2,1,52,4123,0,1,328.69999999925494,441,H
2023-04-27T23:47:09Z,yk3unkzo,serial-reaction-time,NA,R,2,1,53,4123,0,3,220,413,L
2023-04-27T23:47:09Z,yk3unkzo,serial-reaction-time,1,R,2,0,53,4123,0,3,498.0999999996274,413,L
2023-04-27T23:47:10Z,yk3unkzo,serial-reaction-time,1,P,2,1,54,4123,0,2,399.0999999996274,132,H
2023-04-27T23:47:10Z,yk3unkzo,serial-reaction-time,1,R,2,1,55,4123,0,4,374.80000000074506,324,H
2023-04-27T23:47:11Z,yk3unkzo,serial-reaction-time,1,P,2,1,56,4123,0,3,339.30000000074506,243,H
2023-04-27T23:47:11Z,yk3unkzo,serial-reaction-time,1,R,2,1,57,4123,0,4,314.2999999988824,434,T
2023-04-27T23:47:12Z,yk3unkzo,serial-reaction-time,1,P,2,1,58,4123,0,4,351.30000000074506,344,H
2023-04-27T23:47:12Z,yk3unkzo,serial-reaction-time,1,R,2,1,59,4123,0,1,463.2000000011176,441,H
2023-04-27T23:47:13Z,yk3unkzo,serial-reaction-time,1,P,2,1,60,4123,0,1,267.80000000074506,411,H
2023-04-27T23:47:13Z,yk3unkzo,serial-reaction-time,1,R,2,1,61,4123,0,2,357.7999999988824,112,H
2023-04-27T23:47:13Z,yk3unkzo,serial-reaction-time,1,P,2,1,62,4123,0,2,300.90000000037253,122,H
2023-04-27T23:47:14Z,yk3unkzo,serial-reaction-time,NA,R,2,1,63,4123,0,1,313.80000000074506,221,L
2023-04-27T23:47:14Z,yk3unkzo,serial-reaction-time,1,R,2,0,63,4123,0,1,622,221,L
2023-04-27T23:47:15Z,yk3unkzo,serial-reaction-time,1,P,2,1,64,4123,0,3,471.1000000014901,213,H
2023-04-27T23:47:15Z,yk3unkzo,serial-reaction-time,1,R,2,1,65,4123,0,2,416.7000000011176,132,H
2023-04-27T23:47:16Z,yk3unkzo,serial-reaction-time,1,P,2,1,66,4123,0,4,423.4000000003726,324,H
2023-04-27T23:47:16Z,yk3unkzo,serial-reaction-time,1,R,2,1,67,4123,0,1,385.80000000074506,241,L
2023-04-27T23:47:17Z,yk3unkzo,serial-reaction-time,1,P,2,1,68,4123,0,1,287.30000000074506,411,H
2023-04-27T23:47:17Z,yk3unkzo,serial-reaction-time,1,R,2,1,69,4123,0,3,354.59999999962747,113,L
2023-04-27T23:47:18Z,yk3unkzo,serial-reaction-time,1,P,2,1,70,4123,0,2,410.69999999925494,132,H
2023-04-27T23:47:18Z,yk3unkzo,serial-reaction-time,1,R,2,1,71,4123,0,1,408.4000000003726,321,L
2023-04-27T23:47:19Z,yk3unkzo,serial-reaction-time,NA,P,2,1,72,4123,0,3,384.5999999996274,213,H
2023-04-27T23:47:19Z,yk3unkzo,serial-reaction-time,1,P,2,0,72,4123,0,3,740.2000000011176,213,H
2023-04-27T23:47:20Z,yk3unkzo,serial-reaction-time,1,R,2,1,73,4123,0,1,369.5999999996274,131,T
2023-04-27T23:47:20Z,yk3unkzo,serial-reaction-time,1,P,2,1,74,4123,0,4,379.7999999988824,314,H
2023-04-27T23:47:21Z,yk3unkzo,serial-reaction-time,1,R,2,1,75,4123,0,3,420.5,143,L
2023-04-27T23:47:21Z,yk3unkzo,serial-reaction-time,1,P,2,1,76,4123,0,1,375.9000000003726,431,H
2023-04-27T23:47:22Z,yk3unkzo,serial-reaction-time,1,R,2,1,77,4123,0,1,311.6000000014901,311,L
2023-04-27T23:47:22Z,yk3unkzo,serial-reaction-time,1,P,2,1,78,4123,0,2,494.69999999925494,112,H
2023-04-27T23:47:23Z,yk3unkzo,serial-reaction-time,1,R,2,1,79,4123,0,3,394.5,123,L
2023-04-27T23:47:23Z,yk3unkzo,serial-reaction-time,1,P,2,1,80,4123,0,3,284.6000000014901,233,H
2023-04-27T23:47:28Z,yk3unkzo,html-keyboard-response,NA,NA,NA,NA,NA,NA,NA,NA,NA,NA,NA
2023-04-27T23:47:29Z,yk3unkzo,html-keyboard-response,NA,NA,NA,NA,NA,NA,NA,NA,NA,NA,NA
2023-04-27T23:47:30Z,yk3unkzo,serial-reaction-time,1,R,3,1,1,4123,0,4,342.5,4,X
2023-04-27T23:47:31Z,yk3unkzo,serial-reaction-time,1,P,3,1,2,4123,0,4,206.2999999988824,44,X
2023-04-27T23:47:31Z,yk3unkzo,serial-reaction-time,1,R,3,1,3,4123,0,1,345.2000000011176,441,H
2023-04-27T23:47:32Z,yk3unkzo,serial-reaction-time,1,P,3,1,4,4123,0,1,238.7999999988824,411,H
2023-04-27T23:47:32Z,yk3unkzo,serial-reaction-time,1,R,3,1,5,4123,0,3,329.7000000011176,113,L
2023-04-27T23:47:33Z,yk3unkzo,serial-reaction-time,1,P,3,1,6,4123,0,2,337,132,H
2023-04-27T23:47:33Z,yk3unkzo,serial-reaction-time,1,R,3,1,7,4123,0,2,279.90000000037253,322,L
2023-04-27T23:47:33Z,yk3unkzo,serial-reaction-time,1,P,3,1,8,4123,0,3,294.09999999962747,223,H
2023-04-27T23:47:34Z,yk3unkzo,serial-reaction-time,1,R,3,1,9,4123,0,2,284.69999999925494,232,T
2023-04-27T23:47:34Z,yk3unkzo,serial-reaction-time,1,P,3,1,10,4123,0,4,328.09999999962747,324,H
2023-04-27T23:47:35Z,yk3unkzo,serial-reaction-time,1,R,3,1,11,4123,0,2,422.30000000074506,242,T
2023-04-27T23:47:35Z,yk3unkzo,serial-reaction-time,1,P,3,1,12,4123,0,1,372.19999999925494,421,H
2023-04-27T23:47:36Z,yk3unkzo,serial-reaction-time,1,R,3,1,13,4123,0,4,336.80000000074506,214,L
2023-04-27T23:47:36Z,yk3unkzo,serial-reaction-time,1,P,3,1,14,4123,0,2,320.1000000014901,142,H
2023-04-27T23:47:37Z,yk3unkzo,serial-reaction-time,NA,R,3,1,15,4123,0,1,282.7000000011176,421,H
2023-04-27T23:47:37Z,yk3unkzo,serial-reaction-time,1,R,3,0,15,4123,0,1,627.4000000022352,421,H
2023-04-27T23:47:37Z,yk3unkzo,serial-reaction-time,NA,P,3,1,16,4123,0,3,283.30000000074506,213,H
2023-04-27T23:47:38Z,yk3unkzo,serial-reaction-time,1,P,3,0,16,4123,0,3,665.9000000003725,213,H
2023-04-27T23:47:38Z,yk3unkzo,serial-reaction-time,1,R,3,1,17,4123,0,1,334.1000000014901,131,T
2023-04-27T23:47:39Z,yk3unkzo,serial-reaction-time,1,P,3,1,18,4123,0,4,352.2999999988824,314,H
2023-04-27T23:47:39Z,yk3unkzo,serial-reaction-time,1,R,3,1,19,4123,0,3,350.90000000037253,143,L
2023-04-27T23:47:40Z,yk3unkzo,serial-reaction-time,1,P,3,1,20,4123,0,1,313.7999999988824,431,H
2023-04-27T23:47:40Z,yk3unkzo,serial-reaction-time,1,R,3,1,21,4123,0,3,325.40000000037253,313,T
2023-04-27T23:47:41Z,yk3unkzo,serial-reaction-time,1,P,3,1,22,4123,0,2,380.80000000074506,132,H
2023-04-27T23:47:41Z,yk3unkzo,serial-reaction-time,1,R,3,1,23,4123,0,3,595.3000000007451,323,T
2023-04-27T23:47:42Z,yk3unkzo,serial-reaction-time,1,P,3,1,24,4123,0,3,246.40000000037253,233,H
2023-04-27T23:47:42Z,yk3unkzo,serial-reaction-time,1,R,3,1,25,4123,0,1,314,331,L
2023-04-27T23:47:43Z,yk3unkzo,serial-reaction-time,1,P,3,1,26,4123,0,4,384.4000000003726,314,H
2023-04-27T23:47:43Z,yk3unkzo,serial-reaction-time,1,R,3,1,27,4123,0,1,343,141,T
2023-04-27T23:47:44Z,yk3unkzo,serial-reaction-time,1,P,3,1,28,4123,0,1,275,411,H
2023-04-27T23:47:44Z,yk3unkzo,serial-reaction-time,1,R,3,1,29,4123,0,1,270.59999999962747,111,R
2023-04-27T23:47:45Z,yk3unkzo,serial-reaction-time,1,P,3,1,30,4123,0,2,438.8999999985099,112,H
2023-04-27T23:47:45Z,yk3unkzo,serial-reaction-time,1,R,3,1,31,4123,0,2,253.90000000037253,122,H
2023-04-27T23:47:45Z,yk3unkzo,serial-reaction-time,1,P,3,1,32,4123,0,3,331.5,223,H
2023-04-27T23:47:46Z,yk3unkzo,serial-reaction-time,1,R,3,1,33,4123,0,3,263.6000000014901,233,H
2023-04-27T23:47:46Z,yk3unkzo,serial-reaction-time,1,P,3,1,34,4123,0,4,308.59999999962747,334,H
2023-04-27T23:47:47Z,yk3unkzo,serial-reaction-time,1,R,3,1,35,4123,0,3,339.69999999925494,343,T
2023-04-27T23:47:47Z,yk3unkzo,serial-reaction-time,1,P,3,1,36,4123,0,1,299.2999999988824,431,H
2023-04-27T23:47:48Z,yk3unkzo,serial-reaction-time,1,R,3,1,37,4123,0,2,451.0999999996274,312,L
2023-04-27T23:47:48Z,yk3unkzo,serial-reaction-time,1,P,3,1,38,4123,0,2,282.09999999962747,122,H
2023-04-27T23:47:49Z,yk3unkzo,serial-reaction-time,1,R,3,1,39,4123,0,2,290.40000000037253,222,R
2023-04-27T23:47:49Z,yk3unkzo,serial-reaction-time,1,P,3,1,40,4123,0,3,305.19999999925494,223,H
2023-04-27T23:47:49Z,yk3unkzo,serial-reaction-time,1,R,3,1,41,4123,0,2,329.19999999925494,232,T
2023-04-27T23:47:50Z,yk3unkzo,serial-reaction-time,1,P,3,1,42,4123,0,4,358.8999999985099,324,H
2023-04-27T23:47:50Z,yk3unkzo,serial-reaction-time,1,R,3,1,43,4123,0,3,326.69999999925494,243,H
2023-04-27T23:47:51Z,yk3unkzo,serial-reaction-time,1,P,3,1,44,4123,0,1,272.1000000014901,431,H
2023-04-27T23:47:51Z,yk3unkzo,serial-reaction-time,1,R,3,1,45,4123,0,3,332.7000000011176,313,T
2023-04-27T23:47:52Z,yk3unkzo,serial-reaction-time,1,P,3,1,46,4123,0,2,395.30000000074506,132,H
2023-04-27T23:47:52Z,yk3unkzo,serial-reaction-time,1,R,3,1,47,4123,0,4,394.19999999925494,324,H
2023-04-27T23:47:53Z,yk3unkzo,serial-reaction-time,1,P,3,1,48,4123,0,3,328.2999999988824,243,H
2023-04-27T23:47:53Z,yk3unkzo,serial-reaction-time,NA,R,3,1,49,4123,0,2,278,432,L
2023-04-27T23:47:53Z,yk3unkzo,serial-reaction-time,1,R,3,0,49,4123,0,2,531.1999999992549,432,L
2023-04-27T23:47:54Z,yk3unkzo,serial-reaction-time,1,P,3,1,50,4123,0,4,418.4000000003726,324,H
2023-04-27T23:47:54Z,yk3unkzo,serial-reaction-time,1,R,3,1,51,4123,0,4,302.2000000011176,244,L
2023-04-27T23:47:55Z,yk3unkzo,serial-reaction-time,NA,P,3,1,52,4123,0,1,327.90000000037253,441,H
2023-04-27T23:47:55Z,yk3unkzo,serial-reaction-time,1,P,3,0,52,4123,0,1,601.1000000014901,441,H
2023-04-27T23:47:56Z,yk3unkzo,serial-reaction-time,1,R,3,1,53,4123,0,1,280.19999999925494,411,H
2023-04-27T23:47:56Z,yk3unkzo,serial-reaction-time,1,P,3,1,54,4123,0,2,360.9000000003726,112,H
2023-04-27T23:47:57Z,yk3unkzo,serial-reaction-time,1,R,3,1,55,4123,0,1,329.09999999962747,121,T
2023-04-27T23:47:57Z,yk3unkzo,serial-reaction-time,1,P,3,1,56,4123,0,3,491.5,213,H
2023-04-27T23:47:58Z,yk3unkzo,serial-reaction-time,1,R,3,1,57,4123,0,3,277.69999999925494,133,L
2023-04-27T23:47:58Z,yk3unkzo,serial-reaction-time,1,P,3,1,58,4123,0,4,307.69999999925494,334,H
2023-04-27T23:47:58Z,yk3unkzo,serial-reaction-time,1,R,3,1,59,4123,0,4,286.2000000011176,344,H
2023-04-27T23:47:59Z,yk3unkzo,serial-reaction-time,1,P,3,1,60,4123,0,1,366.5,441,H
2023-04-27T23:47:59Z,yk3unkzo,serial-reaction-time,NA,R,3,1,61,4123,0,4,361.0999999996274,414,T
2023-04-27T23:48:00Z,yk3unkzo,serial-reaction-time,1,R,3,0,61,4123,0,4,673.1999999992549,414,T
2023-04-27T23:48:00Z,yk3unkzo,serial-reaction-time,1,P,3,1,62,4123,0,2,492.19999999925494,142,H
2023-04-27T23:48:01Z,yk3unkzo,serial-reaction-time,1,R,3,1,63,4123,0,1,491.5999999996274,421,H
2023-04-27T23:48:01Z,yk3unkzo,serial-reaction-time,1,P,3,1,64,4123,0,3,400.0999999996274,213,H
2023-04-27T23:48:02Z,yk3unkzo,serial-reaction-time,1,R,3,1,65,4123,0,4,378,134,L
2023-04-27T23:48:02Z,yk3unkzo,serial-reaction-time,1,P,3,1,66,4123,0,4,304.7999999988824,344,H
2023-04-27T23:48:03Z,yk3unkzo,serial-reaction-time,1,R,3,1,67,4123,0,3,423.30000000074506,443,L
2023-04-27T23:48:03Z,yk3unkzo,serial-reaction-time,1,P,3,1,68,4123,0,1,351.2000000011176,431,H
2023-04-27T23:48:04Z,yk3unkzo,serial-reaction-time,1,R,3,1,69,4123,0,1,274.1000000014901,311,L
2023-04-27T23:48:04Z,yk3unkzo,serial-reaction-time,1,P,3,1,70,4123,0,2,431.0999999996274,112,H
2023-04-27T23:48:05Z,yk3unkzo,serial-reaction-time,1,R,3,1,71,4123,0,1,412.5999999996274,121,T
2023-04-27T23:48:06Z,yk3unkzo,serial-reaction-time,1,P,3,1,72,4123,0,3,393.1000000014901,213,H
2023-04-27T23:48:06Z,yk3unkzo,serial-reaction-time,1,R,3,1,73,4123,0,3,282.5,133,L
2023-04-27T23:48:06Z,yk3unkzo,serial-reaction-time,1,P,3,1,74,4123,0,4,370.69999999925494,334,H
2023-04-27T23:48:07Z,yk3unkzo,serial-reaction-time,1,R,3,1,75,4123,0,1,364.7000000011176,341,L
2023-04-27T23:48:07Z,yk3unkzo,serial-reaction-time,1,P,3,1,76,4123,0,1,281.30000000074506,411,H
2023-04-27T23:48:08Z,yk3unkzo,serial-reaction-time,1,R,3,1,77,4123,0,2,401.19999999925494,112,H
2023-04-27T23:48:08Z,yk3unkzo,serial-reaction-time,1,P,3,1,78,4123,0,2,282.40000000037253,122,H
2023-04-27T23:48:09Z,yk3unkzo,serial-reaction-time,1,R,3,1,79,4123,0,2,293.40000000037253,222,R
2023-04-27T23:48:09Z,yk3unkzo,serial-reaction-time,1,P,3,1,80,4123,0,3,524.6999999992549,223,H
2023-04-27T23:48:14Z,yk3unkzo,html-keyboard-response,NA,NA,NA,NA,NA,NA,NA,NA,NA,NA,NA
2023-04-27T23:48:15Z,yk3unkzo,html-keyboard-response,NA,NA,NA,NA,NA,NA,NA,NA,NA,NA,NA
2023-04-27T23:48:16Z,yk3unkzo,serial-reaction-time,1,R,4,1,1,4123,0,1,370.7000000011176,1,X
2023-04-27T23:48:17Z,yk3unkzo,serial-reaction-time,1,P,4,1,2,4123,0,4,367.9000000003726,14,X
2023-04-27T23:48:17Z,yk3unkzo,serial-reaction-time,NA,R,4,1,3,4123,0,1,333.30000000074506,141,T
2023-04-27T23:48:18Z,yk3unkzo,serial-reaction-time,1,R,4,0,3,4123,0,1,525.0000000018626,141,T
2023-04-27T23:48:18Z,yk3unkzo,serial-reaction-time,1,P,4,1,4,4123,0,1,280.80000000074506,411,H
2023-04-27T23:48:18Z,yk3unkzo,serial-reaction-time,1,R,4,1,5,4123,0,4,343.1000000014901,114,L
2023-04-27T23:48:19Z,yk3unkzo,serial-reaction-time,1,P,4,1,6,4123,0,2,417.9000000003726,142,H
2023-04-27T23:48:19Z,yk3unkzo,serial-reaction-time,1,R,4,1,7,4123,0,3,371,423,L
2023-04-27T23:48:20Z,yk3unkzo,serial-reaction-time,1,P,4,1,8,4123,0,3,287.2999999988824,233,H
2023-04-27T23:48:20Z,yk3unkzo,serial-reaction-time,1,R,4,1,9,4123,0,4,363.6000000014901,334,H
2023-04-27T23:48:21Z,yk3unkzo,serial-reaction-time,1,P,4,1,10,4123,0,4,299.09999999962747,344,H
2023-04-27T23:48:21Z,yk3unkzo,serial-reaction-time,1,R,4,1,11,4123,0,3,360.8999999985099,443,L
2023-04-27T23:48:22Z,yk3unkzo,serial-reaction-time,1,P,4,1,12,4123,0,1,377.80000000074506,431,H
2023-04-27T23:48:22Z,yk3unkzo,serial-reaction-time,1,R,4,1,13,4123,0,4,366.9000000003726,314,H
2023-04-27T23:48:23Z,yk3unkzo,serial-reaction-time,1,P,4,1,14,4123,0,2,388,142,H
2023-04-27T23:48:23Z,yk3unkzo,serial-reaction-time,1,R,4,1,15,4123,0,1,381.2000000011176,421,H
2023-04-27T23:48:24Z,yk3unkzo,serial-reaction-time,1,P,4,1,16,4123,0,3,363.80000000074506,213,H
2023-04-27T23:48:24Z,yk3unkzo,serial-reaction-time,1,R,4,1,17,4123,0,1,296.3999999985099,131,T
2023-04-27T23:48:25Z,yk3unkzo,serial-reaction-time,1,P,4,1,18,4123,0,4,533.5,314,H
2023-04-27T23:48:26Z,yk3unkzo,serial-reaction-time,1,R,4,1,19,4123,0,2,478,142,H
2023-04-27T23:48:26Z,yk3unkzo,serial-reaction-time,1,P,4,1,20,4123,0,1,335.5,421,H
2023-04-27T23:48:26Z,yk3unkzo,serial-reaction-time,1,R,4,1,21,4123,0,1,244.30000000074503,211,L
2023-04-27T23:48:27Z,yk3unkzo,serial-reaction-time,NA,P,4,1,22,4123,0,2,358.09999999962747,112,H
2023-04-27T23:48:27Z,yk3unkzo,serial-reaction-time,1,P,4,0,22,4123,0,2,603.0999999996275,112,H
2023-04-27T23:48:28Z,yk3unkzo,serial-reaction-time,1,R,4,1,23,4123,0,3,457.30000000074506,123,L
2023-04-27T23:48:28Z,yk3unkzo,serial-reaction-time,1,P,4,1,24,4123,0,3,274,233,H
2023-04-27T23:48:29Z,yk3unkzo,serial-reaction-time,1,R,4,1,25,4123,0,2,399.80000000074506,332,L
2023-04-27T23:48:29Z,yk3unkzo,serial-reaction-time,1,P,4,1,26,4123,0,4,407.80000000074506,324,H
2023-04-27T23:48:30Z,yk3unkzo,serial-reaction-time,1,R,4,1,27,4123,0,4,312.40000000037253,244,L
2023-04-27T23:48:30Z,yk3unkzo,serial-reaction-time,1,P,4,1,28,4123,0,1,373.19999999925494,441,H
2023-04-27T23:48:31Z,yk3unkzo,serial-reaction-time,1,R,4,1,29,4123,0,2,345.2999999988824,412,L
2023-04-27T23:48:31Z,yk3unkzo,serial-reaction-time,1,P,4,1,30,4123,0,2,256.19999999925494,122,H
2023-04-27T23:48:32Z,yk3unkzo,serial-reaction-time,1,R,4,1,31,4123,0,1,428,221,L
2023-04-27T23:48:32Z,yk3unkzo,serial-reaction-time,1,P,4,1,32,4123,0,3,456.69999999925494,213,H
2023-04-27T23:48:33Z,yk3unkzo,serial-reaction-time,1,R,4,1,33,4123,0,1,348.1000000014901,131,T
2023-04-27T23:48:33Z,yk3unkzo,serial-reaction-time,1,P,4,1,34,4123,0,4,397.19999999925494,314,H
2023-04-27T23:48:34Z,yk3unkzo,serial-reaction-time,1,R,4,1,35,4123,0,2,419.5,142,H
2023-04-27T23:48:34Z,yk3unkzo,serial-reaction-time,1,P,4,1,36,4123,0,1,298.30000000074506,421,H
2023-04-27T23:48:35Z,yk3unkzo,serial-reaction-time,1,R,4,1,37,4123,0,1,328.19999999925494,211,L
2023-04-27T23:48:35Z,yk3unkzo,serial-reaction-time,1,P,4,1,38,4123,0,2,396.1000000014901,112,H
2023-04-27T23:48:36Z,yk3unkzo,serial-reaction-time,1,R,4,1,39,4123,0,4,337.90000000037253,124,L
2023-04-27T23:48:36Z,yk3unkzo,serial-reaction-time,1,P,4,1,40,4123,0,3,435.80000000074506,243,H
2023-04-27T23:48:37Z,yk3unkzo,serial-reaction-time,1,R,4,1,41,4123,0,1,360.30000000074506,431,H
2023-04-27T23:48:37Z,yk3unkzo,serial-reaction-time,1,P,4,1,42,4123,0,4,413.5,314,H
2023-04-27T23:48:38Z,yk3unkzo,serial-reaction-time,1,R,4,1,43,4123,0,4,357.09999999962747,144,L
2023-04-27T23:48:38Z,yk3unkzo,serial-reaction-time,1,P,4,1,44,4123,0,1,328,441,H
2023-04-27T23:48:39Z,yk3unkzo,serial-reaction-time,1,R,4,1,45,4123,0,2,530.7999999988824,412,L
2023-04-27T23:48:39Z,yk3unkzo,serial-reaction-time,1,P,4,1,46,4123,0,2,323.5,122,H
2023-04-27T23:48:40Z,yk3unkzo,serial-reaction-time,1,R,4,1,47,4123,0,2,283.09999999962747,222,R
2023-04-27T23:48:40Z,yk3unkzo,serial-reaction-time,1,P,4,1,48,4123,0,3,318.69999999925494,223,H
2023-04-27T23:48:41Z,yk3unkzo,serial-reaction-time,1,R,4,1,49,4123,0,4,337.90000000037253,234,L
2023-04-27T23:48:41Z,yk3unkzo,serial-reaction-time,1,P,4,1,50,4123,0,4,322.80000000074506,344,H
2023-04-27T23:48:42Z,yk3unkzo,serial-reaction-time,1,R,4,1,51,4123,0,2,345,442,L
2023-04-27T23:48:42Z,yk3unkzo,serial-reaction-time,1,P,4,1,52,4123,0,1,304.40000000037253,421,H
2023-04-27T23:48:42Z,yk3unkzo,serial-reaction-time,1,R,4,1,53,4123,0,3,359.5,213,H
2023-04-27T23:48:43Z,yk3unkzo,serial-reaction-time,1,P,4,1,54,4123,0,2,358.40000000037253,132,H
2023-04-27T23:48:43Z,yk3unkzo,serial-reaction-time,1,R,4,1,55,4123,0,2,291.19999999925494,322,L
2023-04-27T23:48:44Z,yk3unkzo,serial-reaction-time,1,P,4,1,56,4123,0,3,373.69999999925494,223,H
2023-04-27T23:48:44Z,yk3unkzo,serial-reaction-time,NA,R,4,1,57,4123,0,2,352.09999999962747,232,T
2023-04-27T23:48:45Z,yk3unkzo,serial-reaction-time,1,R,4,0,57,4123,0,2,700.1999999992549,232,T
2023-04-27T23:48:45Z,yk3unkzo,serial-reaction-time,1,P,4,1,58,4123,0,4,453.5999999996274,324,H
2023-04-27T23:48:46Z,yk3unkzo,serial-reaction-time,1,R,4,1,59,4123,0,3,387.7999999988824,243,H
2023-04-27T23:48:46Z,yk3unkzo,serial-reaction-time,1,P,4,1,60,4123,0,1,361.5,431,H
2023-04-27T23:48:47Z,yk3unkzo,serial-reaction-time,1,R,4,1,61,4123,0,1,287.6000000014901,311,L
2023-04-27T23:48:47Z,yk3unkzo,serial-reaction-time,1,P,4,1,62,4123,0,2,505.30000000074506,112,H
2023-04-27T23:48:48Z,yk3unkzo,serial-reaction-time,1,R,4,1,63,4123,0,1,434.2999999988824,121,T
2023-04-27T23:48:48Z,yk3unkzo,serial-reaction-time,1,P,4,1,64,4123,0,3,355.5,213,H
2023-04-27T23:48:49Z,yk3unkzo,serial-reaction-time,1,R,4,1,65,4123,0,4,590.0999999996275,134,L
2023-04-27T23:48:50Z,yk3unkzo,serial-reaction-time,1,P,4,1,66,4123,0,4,339.09999999962747,344,H
2023-04-27T23:48:50Z,yk3unkzo,serial-reaction-time,1,R,4,1,67,4123,0,2,510.1000000014901,442,L
2023-04-27T23:48:51Z,yk3unkzo,serial-reaction-time,1,P,4,1,68,4123,0,1,384.19999999925494,421,H
2023-04-27T23:48:51Z,yk3unkzo,serial-reaction-time,1,R,4,1,69,4123,0,1,305.3999999985099,211,L
2023-04-27T23:48:52Z,yk3unkzo,serial-reaction-time,1,P,4,1,70,4123,0,2,371.7999999988824,112,H
2023-04-27T23:48:52Z,yk3unkzo,serial-reaction-time,1,R,4,1,71,4123,0,1,338.59999999962747,121,T
2023-04-27T23:48:53Z,yk3unkzo,serial-reaction-time,1,P,4,1,72,4123,0,3,463.80000000074506,213,H
2023-04-27T23:48:53Z,yk3unkzo,serial-reaction-time,1,R,4,1,73,4123,0,2,370,132,H
2023-04-27T23:48:54Z,yk3unkzo,serial-reaction-time,1,P,4,1,74,4123,0,4,375,324,H
2023-04-27T23:48:54Z,yk3unkzo,serial-reaction-time,1,R,4,1,75,4123,0,2,334.7000000011176,242,T
2023-04-27T23:48:55Z,yk3unkzo,serial-reaction-time,1,P,4,1,76,4123,0,1,356.30000000074506,421,H
2023-04-27T23:48:55Z,yk3unkzo,serial-reaction-time,1,R,4,1,77,4123,0,3,538.3000000007451,213,H
2023-04-27T23:48:56Z,yk3unkzo,serial-reaction-time,1,P,4,1,78,4123,0,2,311.7999999988824,132,H
2023-04-27T23:48:56Z,yk3unkzo,serial-reaction-time,1,R,4,1,79,4123,0,1,348.5,321,L
2023-04-27T23:48:57Z,yk3unkzo,serial-reaction-time,1,P,4,1,80,4123,0,3,380,213,H
2023-04-27T23:49:02Z,yk3unkzo,html-keyboard-response,NA,NA,NA,NA,NA,NA,NA,NA,NA,NA,NA
2023-04-27T23:49:03Z,yk3unkzo,html-keyboard-response,NA,NA,NA,NA,NA,NA,NA,NA,NA,NA,NA
2023-04-27T23:49:04Z,yk3unkzo,serial-reaction-time,1,R,5,1,1,4123,0,3,392.7000000011176,3,X
2023-04-27T23:49:04Z,yk3unkzo,serial-reaction-time,1,P,5,1,2,4123,0,4,352.80000000074506,34,X
2023-04-27T23:49:05Z,yk3unkzo,serial-reaction-time,1,R,5,1,3,4123,0,2,404.3999999985099,342,L
2023-04-27T23:49:05Z,yk3unkzo,serial-reaction-time,1,P,5,1,4,4123,0,1,354.30000000074506,421,H
2023-04-27T23:49:06Z,yk3unkzo,serial-reaction-time,1,R,5,1,5,4123,0,2,370.5999999996274,212,T
2023-04-27T23:49:06Z,yk3unkzo,serial-reaction-time,1,P,5,1,6,4123,0,2,384.30000000074506,122,H
2023-04-27T23:49:07Z,yk3unkzo,serial-reaction-time,1,R,5,1,7,4123,0,2,308.19999999925494,222,R
2023-04-27T23:49:07Z,yk3unkzo,serial-reaction-time,1,P,5,1,8,4123,0,3,370.7000000011176,223,H
2023-04-27T23:49:08Z,yk3unkzo,serial-reaction-time,1,R,5,1,9,4123,0,1,408.2000000011176,231,L
2023-04-27T23:49:08Z,yk3unkzo,serial-reaction-time,1,P,5,1,10,4123,0,4,365,314,H
2023-04-27T23:49:09Z,yk3unkzo,serial-reaction-time,1,R,5,1,11,4123,0,3,354.5,143,L
2023-04-27T23:49:09Z,yk3unkzo,serial-reaction-time,1,P,5,1,12,4123,0,1,348.7000000011176,431,H
2023-04-27T23:49:10Z,yk3unkzo,serial-reaction-time,1,R,5,1,13,4123,0,4,389.69999999925494,314,H
2023-04-27T23:49:10Z,yk3unkzo,serial-reaction-time,1,P,5,1,14,4123,0,2,396.5,142,H
2023-04-27T23:49:11Z,yk3unkzo,serial-reaction-time,1,R,5,1,15,4123,0,4,374.4000000003726,424,T
2023-04-27T23:49:11Z,yk3unkzo,serial-reaction-time,1,P,5,1,16,4123,0,3,388.6000000014901,243,H
2023-04-27T23:49:12Z,yk3unkzo,serial-reaction-time,1,R,5,1,17,4123,0,2,319.8999999985099,432,L
2023-04-27T23:49:12Z,yk3unkzo,serial-reaction-time,1,P,5,1,18,4123,0,4,358.30000000074506,324,H
2023-04-27T23:49:13Z,yk3unkzo,serial-reaction-time,1,R,5,1,19,4123,0,4,354,244,L
2023-04-27T23:49:13Z,yk3unkzo,serial-reaction-time,1,P,5,1,20,4123,0,1,368.5,441,H
2023-04-27T23:49:14Z,yk3unkzo,serial-reaction-time,1,R,5,1,21,4123,0,2,385.3999999985099,412,L
2023-04-27T23:49:14Z,yk3unkzo,serial-reaction-time,1,P,5,1,22,4123,0,2,339.5,122,H
2023-04-27T23:49:15Z,yk3unkzo,serial-reaction-time,1,R,5,1,23,4123,0,4,302.30000000074506,224,L
2023-04-27T23:49:15Z,yk3unkzo,serial-reaction-time,1,P,5,1,24,4123,0,3,378.2000000011176,243,H
2023-04-27T23:49:16Z,yk3unkzo,serial-reaction-time,1,R,5,1,25,4123,0,3,316.7000000011176,433,L
2023-04-27T23:49:16Z,yk3unkzo,serial-reaction-time,1,P,5,1,26,4123,0,4,303.7000000011176,334,H
2023-04-27T23:49:17Z,yk3unkzo,serial-reaction-time,1,R,5,1,27,4123,0,3,321.30000000074506,343,T
2023-04-27T23:49:17Z,yk3unkzo,serial-reaction-time,1,P,5,1,28,4123,0,1,345,431,H
2023-04-27T23:49:18Z,yk3unkzo,serial-reaction-time,1,R,5,1,29,4123,0,1,248.80000000074503,311,L
2023-04-27T23:49:18Z,yk3unkzo,serial-reaction-time,1,P,5,1,30,4123,0,2,317.2000000011176,112,H
2023-04-27T23:49:18Z,yk3unkzo,serial-reaction-time,NA,R,5,1,31,4123,0,3,294.30000000074506,123,L
2023-04-27T23:49:19Z,yk3unkzo,serial-reaction-time,1,R,5,0,31,4123,0,3,679.0999999996275,123,L
2023-04-27T23:49:19Z,yk3unkzo,serial-reaction-time,1,P,5,1,32,4123,0,3,300.30000000074506,233,H
2023-04-27T23:49:20Z,yk3unkzo,serial-reaction-time,1,R,5,1,33,4123,0,3,276.1000000014901,333,R
2023-04-27T23:49:20Z,yk3unkzo,serial-reaction-time,1,P,5,1,34,4123,0,4,287.7000000011176,334,H
2023-04-27T23:49:20Z,yk3unkzo,serial-reaction-time,1,R,5,1,35,4123,0,1,271.19999999925494,341,L
2023-04-27T23:49:21Z,yk3unkzo,serial-reaction-time,1,P,5,1,36,4123,0,1,313.90000000037253,411,H
2023-04-27T23:49:21Z,yk3unkzo,serial-reaction-time,1,R,5,1,37,4123,0,4,364.19999999925494,114,L
2023-04-27T23:49:22Z,yk3unkzo,serial-reaction-time,1,P,5,1,38,4123,0,2,294.19999999925494,142,H
2023-04-27T23:49:22Z,yk3unkzo,serial-reaction-time,1,R,5,1,39,4123,0,2,429,422,L
2023-04-27T23:49:23Z,yk3unkzo,serial-reaction-time,1,P,5,1,40,4123,0,3,352,223,H
2023-04-27T23:49:23Z,yk3unkzo,serial-reaction-time,1,R,5,1,41,4123,0,1,287.30000000074506,231,L
2023-04-27T23:49:24Z,yk3unkzo,serial-reaction-time,NA,P,5,1,42,4123,0,4,319.7000000011176,314,H
2023-04-27T23:49:24Z,yk3unkzo,serial-reaction-time,1,P,5,0,42,4123,0,4,657.5,314,H
2023-04-27T23:49:25Z,yk3unkzo,serial-reaction-time,1,R,5,1,43,4123,0,1,368.4000000003726,141,T
2023-04-27T23:49:25Z,yk3unkzo,serial-reaction-time,1,P,5,1,44,4123,0,1,261.7000000011176,411,H
2023-04-27T23:49:25Z,yk3unkzo,serial-reaction-time,NA,R,5,1,45,4123,0,4,360.9000000003726,114,L
2023-04-27T23:49:26Z,yk3unkzo,serial-reaction-time,1,R,5,0,45,4123,0,4,651.5,114,L
2023-04-27T23:49:26Z,yk3unkzo,serial-reaction-time,1,P,5,1,46,4123,0,2,436.9000000003726,142,H
2023-04-27T23:49:27Z,yk3unkzo,serial-reaction-time,1,R,5,1,47,4123,0,2,225.30000000074503,422,L
2023-04-27T23:49:27Z,yk3unkzo,serial-reaction-time,1,P,5,1,48,4123,0,3,373.69999999925494,223,H
2023-04-27T23:49:28Z,yk3unkzo,serial-reaction-time,1,R,5,1,49,4123,0,1,346.69999999925494,231,L
2023-04-27T23:49:28Z,yk3unkzo,serial-reaction-time,1,P,5,1,50,4123,0,4,336.40000000037253,314,H
2023-04-27T23:49:29Z,yk3unkzo,serial-reaction-time,1,R,5,1,51,4123,0,2,608,142,H
2023-04-27T23:49:29Z,yk3unkzo,serial-reaction-time,1,P,5,1,52,4123,0,1,267,421,H
2023-04-27T23:49:30Z,yk3unkzo,serial-reaction-time,1,R,5,1,53,4123,0,1,277,211,L
2023-04-27T23:49:30Z,yk3unkzo,serial-reaction-time,NA,P,5,1,54,4123,0,2,202.59999999962747,112,H
2023-04-27T23:49:31Z,yk3unkzo,serial-reaction-time,1,P,5,0,54,4123,0,2,661.1999999992549,112,H
2023-04-27T23:49:31Z,yk3unkzo,serial-reaction-time,NA,R,5,1,55,4123,0,3,398.7000000011176,123,L
2023-04-27T23:49:31Z,yk3unkzo,serial-reaction-time,1,R,5,0,55,4123,0,3,625.5000000018626,123,L
2023-04-27T23:49:32Z,yk3unkzo,serial-reaction-time,1,P,5,1,56,4123,0,3,324.19999999925494,233,H
2023-04-27T23:49:32Z,yk3unkzo,serial-reaction-time,1,R,5,1,57,4123,0,2,405.7000000011176,332,L
2023-04-27T23:49:33Z,yk3unkzo,serial-reaction-time,1,P,5,1,58,4123,0,4,317.59999999962747,324,H
2023-04-27T23:49:33Z,yk3unkzo,serial-reaction-time,1,R,5,1,59,4123,0,3,364.5999999996274,243,H
2023-04-27T23:49:34Z,yk3unkzo,serial-reaction-time,1,P,5,1,60,4123,0,1,353.40000000037253,431,H
2023-04-27T23:49:34Z,yk3unkzo,serial-reaction-time,1,R,5,1,61,4123,0,3,429.5999999996274,313,T
2023-04-27T23:49:35Z,yk3unkzo,serial-reaction-time,1,P,5,1,62,4123,0,2,529.3000000007451,132,H
2023-04-27T23:49:35Z,yk3unkzo,serial-reaction-time,1,R,5,1,63,4123,0,1,358,321,L
2023-04-27T23:49:36Z,yk3unkzo,serial-reaction-time,1,P,5,1,64,4123,0,3,420.9000000003726,213,H
2023-04-27T23:49:37Z,yk3unkzo,serial-reaction-time,1,R,5,1,65,4123,0,1,444.69999999925494,131,T
2023-04-27T23:49:37Z,yk3unkzo,serial-reaction-time,1,P,5,1,66,4123,0,4,433.80000000074506,314,H
2023-04-27T23:49:38Z,yk3unkzo,serial-reaction-time,1,R,5,1,67,4123,0,1,491.2000000011176,141,T
2023-04-27T23:49:38Z,yk3unkzo,serial-reaction-time,1,P,5,1,68,4123,0,1,297.2000000011176,411,H
2023-04-27T23:49:39Z,yk3unkzo,serial-reaction-time,1,R,5,1,69,4123,0,2,542.8999999985099,112,H
2023-04-27T23:49:39Z,yk3unkzo,serial-reaction-time,1,P,5,1,70,4123,0,2,315.69999999925494,122,H
2023-04-27T23:49:40Z,yk3unkzo,serial-reaction-time,1,R,5,1,71,4123,0,1,493.3999999985099,221,L
2023-04-27T23:49:40Z,yk3unkzo,serial-reaction-time,1,P,5,1,72,4123,0,3,440,213,H
2023-04-27T23:49:41Z,yk3unkzo,serial-reaction-time,1,R,5,1,73,4123,0,1,336.09999999962747,131,T
2023-04-27T23:49:41Z,yk3unkzo,serial-reaction-time,1,P,5,1,74,4123,0,4,415.2000000011176,314,H
2023-04-27T23:49:42Z,yk3unkzo,serial-reaction-time,1,R,5,1,75,4123,0,4,346.30000000074506,144,L
2023-04-27T23:49:42Z,yk3unkzo,serial-reaction-time,1,P,5,1,76,4123,0,1,369.6000000014901,441,H
2023-04-27T23:49:43Z,yk3unkzo,serial-reaction-time,1,R,5,1,77,4123,0,3,395,413,L
2023-04-27T23:49:44Z,yk3unkzo,serial-reaction-time,1,P,5,1,78,4123,0,2,443.69999999925494,132,H
2023-04-27T23:49:44Z,yk3unkzo,serial-reaction-time,1,R,5,1,79,4123,0,1,341,321,L
2023-04-27T23:49:45Z,yk3unkzo,serial-reaction-time,1,P,5,1,80,4123,0,3,419.19999999925494,213,H
2023-04-27T23:49:50Z,yk3unkzo,html-keyboard-response,NA,NA,NA,NA,NA,NA,NA,NA,NA,NA,NA
2023-04-27T23:49:53Z,yk3unkzo,html-keyboard-response,NA,NA,NA,NA,NA,NA,NA,NA,NA,NA,NA
2023-04-27T23:49:54Z,yk3unkzo,fullscreen,NA,NA,NA,NA,NA,NA,NA,NA,NA,NA,NA
2023-04-30T18:59:08Z,ln7kg8ue,fullscreen,NA,NA,NA,NA,NA,NA,NA,NA,NA,NA,NA
2023-04-30T18:59:08Z,ln7kg8ue,html-keyboard-response,NA,NA,NA,NA,NA,NA,NA,NA,NA,NA,NA
2023-04-30T18:59:10Z,ln7kg8ue,serial-reaction-time,1,R,1,1,1,4123,0,2,428.6000000014901,2,X
2023-04-30T18:59:10Z,ln7kg8ue,serial-reaction-time,1,P,1,1,2,4123,0,4,332.19999999552965,24,X
2023-04-30T18:59:11Z,ln7kg8ue,serial-reaction-time,1,R,1,1,3,4123,0,2,271.80000000447035,242,T
2023-04-30T18:59:11Z,ln7kg8ue,serial-reaction-time,1,P,1,1,4,4123,0,1,357.1000000014901,421,H
2023-04-30T18:59:12Z,ln7kg8ue,serial-reaction-time,1,R,1,1,5,4123,0,1,347.8999999985099,211,L
2023-04-30T18:59:12Z,ln7kg8ue,serial-reaction-time,1,P,1,1,6,4123,0,2,305.5,112,H
2023-04-30T18:59:13Z,ln7kg8ue,serial-reaction-time,1,R,1,1,7,4123,0,3,367.8999999985099,123,L
2023-04-30T18:59:13Z,ln7kg8ue,serial-reaction-time,1,P,1,1,8,4123,0,3,271.20000000298023,233,H
2023-04-30T18:59:13Z,ln7kg8ue,serial-reaction-time,1,R,1,1,9,4123,0,3,299.1000000014901,333,R
2023-04-30T18:59:14Z,ln7kg8ue,serial-reaction-time,1,P,1,1,10,4123,0,4,269,334,H
2023-04-30T18:59:14Z,ln7kg8ue,serial-reaction-time,1,R,1,1,11,4123,0,1,405.6000000014901,341,L
2023-04-30T18:59:15Z,ln7kg8ue,serial-reaction-time,1,P,1,1,12,4123,0,1,273.70000000298023,411,H
2023-04-30T18:59:15Z,ln7kg8ue,serial-reaction-time,1,R,1,1,13,4123,0,1,349.79999999701977,111,R
2023-04-30T18:59:16Z,ln7kg8ue,serial-reaction-time,1,P,1,1,14,4123,0,2,370.1000000014901,112,H
2023-04-30T18:59:16Z,ln7kg8ue,serial-reaction-time,1,R,1,1,15,4123,0,2,298.40000000596046,122,H
2023-04-30T18:59:17Z,ln7kg8ue,serial-reaction-time,1,P,1,1,16,4123,0,3,296.30000000447035,223,H
2023-04-30T18:59:17Z,ln7kg8ue,serial-reaction-time,1,R,1,1,17,4123,0,4,342.90000000596046,234,L
2023-04-30T18:59:18Z,ln7kg8ue,serial-reaction-time,1,P,1,1,18,4123,0,4,275.20000000298023,344,H
2023-04-30T18:59:18Z,ln7kg8ue,serial-reaction-time,1,R,1,1,19,4123,0,3,327.40000000596046,443,L
2023-04-30T18:59:19Z,ln7kg8ue,serial-reaction-time,1,P,1,1,20,4123,0,1,427.1000000014901,431,H
2023-04-30T18:59:19Z,ln7kg8ue,serial-reaction-time,NA,R,1,1,21,4123,0,3,213.79999999701977,313,T
2023-04-30T18:59:19Z,ln7kg8ue,serial-reaction-time,1,R,1,0,21,4123,0,3,365.1000000014901,313,T
2023-04-30T18:59:19Z,ln7kg8ue,serial-reaction-time,1,P,1,1,22,4123,0,2,295.5,132,H
2023-04-30T18:59:20Z,ln7kg8ue,serial-reaction-time,1,R,1,1,23,4123,0,4,386.6000000014901,324,H
2023-04-30T18:59:20Z,ln7kg8ue,serial-reaction-time,1,P,1,1,24,4123,0,3,283.69999999552965,243,H
2023-04-30T18:59:21Z,ln7kg8ue,serial-reaction-time,1,R,1,1,25,4123,0,3,323.29999999701977,433,L
2023-04-30T18:59:21Z,ln7kg8ue,serial-reaction-time,1,P,1,1,26,4123,0,4,347.79999999701977,334,H
2023-04-30T18:59:22Z,ln7kg8ue,serial-reaction-time,1,R,1,1,27,4123,0,3,308.5,343,T
2023-04-30T18:59:22Z,ln7kg8ue,serial-reaction-time,1,P,1,1,28,4123,0,1,442.30000000447035,431,H
2023-04-30T18:59:23Z,ln7kg8ue,serial-reaction-time,1,R,1,1,29,4123,0,3,309.30000000447035,313,T
2023-04-30T18:59:23Z,ln7kg8ue,serial-reaction-time,1,P,1,1,30,4123,0,2,416.19999999552965,132,H
2023-04-30T18:59:24Z,ln7kg8ue,serial-reaction-time,1,R,1,1,31,4123,0,1,322.3999999985099,321,L
2023-04-30T18:59:24Z,ln7kg8ue,serial-reaction-time,1,P,1,1,32,4123,0,3,294,213,H
2023-04-30T18:59:25Z,ln7kg8ue,serial-reaction-time,1,R,1,1,33,4123,0,2,342.8999999985099,132,H
2023-04-30T18:59:25Z,ln7kg8ue,serial-reaction-time,1,P,1,1,34,4123,0,4,331.69999999552965,324,H
2023-04-30T18:59:26Z,ln7kg8ue,serial-reaction-time,1,R,1,1,35,4123,0,1,345.6000000014901,241,L
2023-04-30T18:59:26Z,ln7kg8ue,serial-reaction-time,1,P,1,1,36,4123,0,1,313.80000000447035,411,H
2023-04-30T18:59:27Z,ln7kg8ue,serial-reaction-time,1,R,1,1,37,4123,0,1,331.3999999985099,111,R
2023-04-30T18:59:27Z,ln7kg8ue,serial-reaction-time,1,P,1,1,38,4123,0,2,313.1000000014901,112,H
2023-04-30T18:59:28Z,ln7kg8ue,serial-reaction-time,1,R,1,1,39,4123,0,1,491.6000000014901,121,T
2023-04-30T18:59:28Z,ln7kg8ue,serial-reaction-time,NA,P,1,1,40,4123,0,3,282.5,213,H
2023-04-30T18:59:28Z,ln7kg8ue,serial-reaction-time,1,P,1,0,40,4123,0,3,435.59999999403954,213,H
2023-04-30T18:59:29Z,ln7kg8ue,serial-reaction-time,1,R,1,1,41,4123,0,1,324.8999999985099,131,T
2023-04-30T18:59:29Z,ln7kg8ue,serial-reaction-time,1,P,1,1,42,4123,0,4,324.69999999552965,314,H
2023-04-30T18:59:30Z,ln7kg8ue,serial-reaction-time,1,R,1,1,43,4123,0,4,295.6000000014901,144,L
2023-04-30T18:59:30Z,ln7kg8ue,serial-reaction-time,NA,P,1,1,44,4123,0,1,308.6000000014901,441,H
2023-04-30T18:59:30Z,ln7kg8ue,serial-reaction-time,1,P,1,0,44,4123,0,1,402.1000000014901,441,H
2023-04-30T18:59:31Z,ln7kg8ue,serial-reaction-time,1,R,1,1,45,4123,0,2,401.30000000447035,412,L
2023-04-30T18:59:31Z,ln7kg8ue,serial-reaction-time,1,P,1,1,46,4123,0,2,301.70000000298023,122,H
2023-04-30T18:59:32Z,ln7kg8ue,serial-reaction-time,1,R,1,1,47,4123,0,2,298.70000000298023,222,R
2023-04-30T18:59:32Z,ln7kg8ue,serial-reaction-time,1,P,1,1,48,4123,0,3,256.30000000447035,223,H
2023-04-30T18:59:32Z,ln7kg8ue,serial-reaction-time,1,R,1,1,49,4123,0,1,326.5,231,L
2023-04-30T18:59:33Z,ln7kg8ue,serial-reaction-time,1,P,1,1,50,4123,0,4,342.20000000298023,314,H
2023-04-30T18:59:33Z,ln7kg8ue,serial-reaction-time,1,R,1,1,51,4123,0,2,282,142,H
2023-04-30T18:59:34Z,ln7kg8ue,serial-reaction-time,1,P,1,1,52,4123,0,1,284,421,H
2023-04-30T18:59:34Z,ln7kg8ue,serial-reaction-time,1,R,1,1,53,4123,0,2,336.6000000014901,212,T
2023-04-30T18:59:35Z,ln7kg8ue,serial-reaction-time,1,P,1,1,54,4123,0,2,324.3999999985099,122,H
2023-04-30T18:59:35Z,ln7kg8ue,serial-reaction-time,1,R,1,1,55,4123,0,3,344.6000000014901,223,H
2023-04-30T18:59:36Z,ln7kg8ue,serial-reaction-time,1,P,1,1,56,4123,0,3,303,233,H
2023-04-30T18:59:36Z,ln7kg8ue,serial-reaction-time,1,R,1,1,57,4123,0,2,378.90000000596046,332,L
2023-04-30T18:59:36Z,ln7kg8ue,serial-reaction-time,1,P,1,1,58,4123,0,4,326.09999999403954,324,H
2023-04-30T18:59:37Z,ln7kg8ue,serial-reaction-time,1,R,1,1,59,4123,0,4,296.5,244,L
2023-04-30T18:59:37Z,ln7kg8ue,serial-reaction-time,1,P,1,1,60,4123,0,1,291.6000000014901,441,H
2023-04-30T18:59:38Z,ln7kg8ue,serial-reaction-time,1,R,1,1,61,4123,0,2,295.1000000014901,412,L
2023-04-30T18:59:38Z,ln7kg8ue,serial-reaction-time,1,P,1,1,62,4123,0,2,248.19999999552965,122,H
2023-04-30T18:59:39Z,ln7kg8ue,serial-reaction-time,1,R,1,1,63,4123,0,3,298.09999999403954,223,H
2023-04-30T18:59:39Z,ln7kg8ue,serial-reaction-time,1,P,1,1,64,4123,0,3,303.90000000596046,233,H
2023-04-30T18:59:39Z,ln7kg8ue,serial-reaction-time,1,R,1,1,65,4123,0,1,277.5,331,L
2023-04-30T18:59:40Z,ln7kg8ue,serial-reaction-time,1,P,1,1,66,4123,0,4,292.79999999701977,314,H
2023-04-30T18:59:40Z,ln7kg8ue,serial-reaction-time,1,R,1,1,67,4123,0,4,308.20000000298023,144,L
2023-04-30T18:59:41Z,ln7kg8ue,serial-reaction-time,1,P,1,1,68,4123,0,1,304,441,H
2023-04-30T18:59:41Z,ln7kg8ue,serial-reaction-time,1,R,1,1,69,4123,0,3,369.5,413,L
2023-04-30T18:59:42Z,ln7kg8ue,serial-reaction-time,1,P,1,1,70,4123,0,2,280.8999999985099,132,H
2023-04-30T18:59:42Z,ln7kg8ue,serial-reaction-time,1,R,1,1,71,4123,0,4,307.6000000014901,324,H
2023-04-30T18:59:43Z,ln7kg8ue,serial-reaction-time,1,P,1,1,72,4123,0,3,371.20000000298023,243,H
2023-04-30T18:59:43Z,ln7kg8ue,serial-reaction-time,1,R,1,1,73,4123,0,3,263.8999999985099,433,L
2023-04-30T18:59:43Z,ln7kg8ue,serial-reaction-time,1,P,1,1,74,4123,0,4,317.80000000447035,334,H
2023-04-30T18:59:44Z,ln7kg8ue,serial-reaction-time,1,R,1,1,75,4123,0,4,332.8999999985099,344,H
2023-04-30T18:59:44Z,ln7kg8ue,serial-reaction-time,1,P,1,1,76,4123,0,1,293.5,441,H
2023-04-30T18:59:45Z,ln7kg8ue,serial-reaction-time,NA,R,1,1,77,4123,0,4,264,414,T
2023-04-30T18:59:45Z,ln7kg8ue,serial-reaction-time,1,R,1,0,77,4123,0,4,469.3999999985099,414,T
2023-04-30T18:59:45Z,ln7kg8ue,serial-reaction-time,1,P,1,1,78,4123,0,2,311.6000000014901,142,H
2023-04-30T18:59:46Z,ln7kg8ue,serial-reaction-time,NA,R,1,1,79,4123,0,1,297.19999999552965,421,H
2023-04-30T18:59:46Z,ln7kg8ue,serial-reaction-time,1,R,1,0,79,4123,0,1,632.0999999940395,421,H
2023-04-30T18:59:46Z,ln7kg8ue,serial-reaction-time,NA,P,1,1,80,4123,0,3,285.70000000298023,213,H
2023-04-30T18:59:47Z,ln7kg8ue,serial-reaction-time,1,P,1,0,80,4123,0,3,386.8999999985099,213,H
2023-04-30T18:59:52Z,ln7kg8ue,html-keyboard-response,NA,NA,NA,NA,NA,NA,NA,NA,NA,NA,NA
2023-04-30T18:59:52Z,ln7kg8ue,html-keyboard-response,NA,NA,NA,NA,NA,NA,NA,NA,NA,NA,NA
2023-04-30T18:59:54Z,ln7kg8ue,serial-reaction-time,1,R,2,1,1,4123,0,1,441.70000000298023,1,X
2023-04-30T18:59:54Z,ln7kg8ue,serial-reaction-time,1,P,2,1,2,4123,0,4,380.1000000014901,14,X
2023-04-30T18:59:54Z,ln7kg8ue,serial-reaction-time,1,R,2,1,3,4123,0,4,295.1000000014901,144,L
2023-04-30T18:59:55Z,ln7kg8ue,serial-reaction-time,1,P,2,1,4,4123,0,1,358.09999999403954,441,H
2023-04-30T18:59:55Z,ln7kg8ue,serial-reaction-time,1,R,2,1,5,4123,0,2,343.20000000298023,412,L
2023-04-30T18:59:56Z,ln7kg8ue,serial-reaction-time,1,P,2,1,6,4123,0,2,203.20000000298023,122,H
2023-04-30T18:59:56Z,ln7kg8ue,serial-reaction-time,1,R,2,1,7,4123,0,2,253,222,R
2023-04-30T18:59:57Z,ln7kg8ue,serial-reaction-time,1,P,2,1,8,4123,0,3,395.09999999403954,223,H
2023-04-30T18:59:57Z,ln7kg8ue,serial-reaction-time,NA,R,2,1,9,4123,0,4,190.5,234,L
2023-04-30T18:59:57Z,ln7kg8ue,serial-reaction-time,1,R,2,0,9,4123,0,4,373.30000000447035,234,L
2023-04-30T18:59:58Z,ln7kg8ue,serial-reaction-time,1,P,2,1,10,4123,0,4,290.90000000596046,344,H
2023-04-30T18:59:58Z,ln7kg8ue,serial-reaction-time,NA,R,2,1,11,4123,0,2,297.70000000298023,442,L
2023-04-30T18:59:58Z,ln7kg8ue,serial-reaction-time,1,R,2,0,11,4123,0,2,537.1000000014901,442,L
2023-04-30T18:59:59Z,ln7kg8ue,serial-reaction-time,1,P,2,1,12,4123,0,1,315.40000000596046,421,H
2023-04-30T18:59:59Z,ln7kg8ue,serial-reaction-time,1,R,2,1,13,4123,0,1,386.29999999701977,211,L
2023-04-30T19:00:00Z,ln7kg8ue,serial-reaction-time,1,P,2,1,14,4123,0,2,242.79999999701977,112,H
2023-04-30T19:00:00Z,ln7kg8ue,serial-reaction-time,1,R,2,1,15,4123,0,3,297.3999999985099,123,L
2023-04-30T19:00:00Z,ln7kg8ue,serial-reaction-time,1,P,2,1,16,4123,0,3,271.19999999552965,233,H
2023-04-30T19:00:01Z,ln7kg8ue,serial-reaction-time,1,R,2,1,17,4123,0,1,334.69999999552965,331,L
2023-04-30T19:00:01Z,ln7kg8ue,serial-reaction-time,1,P,2,1,18,4123,0,4,288.1000000014901,314,H
2023-04-30T19:00:02Z,ln7kg8ue,serial-reaction-time,1,R,2,1,19,4123,0,3,319.79999999701977,143,L
2023-04-30T19:00:02Z,ln7kg8ue,serial-reaction-time,1,P,2,1,20,4123,0,1,372.1000000014901,431,H
2023-04-30T19:00:03Z,ln7kg8ue,serial-reaction-time,1,R,2,1,21,4123,0,2,342.29999999701977,312,L
2023-04-30T19:00:03Z,ln7kg8ue,serial-reaction-time,1,P,2,1,22,4123,0,2,246.5,122,H
2023-04-30T19:00:04Z,ln7kg8ue,serial-reaction-time,1,R,2,1,23,4123,0,4,314,224,L
2023-04-30T19:00:04Z,ln7kg8ue,serial-reaction-time,1,P,2,1,24,4123,0,3,325.69999999552965,243,H
2023-04-30T19:00:04Z,ln7kg8ue,serial-reaction-time,1,R,2,1,25,4123,0,1,357.8999999985099,431,H
2023-04-30T19:00:05Z,ln7kg8ue,serial-reaction-time,1,P,2,1,26,4123,0,4,375.6000000014901,314,H
2023-04-30T19:00:05Z,ln7kg8ue,serial-reaction-time,1,R,2,1,27,4123,0,2,255.29999999701977,142,H
2023-04-30T19:00:06Z,ln7kg8ue,serial-reaction-time,NA,P,2,1,28,4123,0,1,280,421,H
2023-04-30T19:00:06Z,ln7kg8ue,serial-reaction-time,1,P,2,0,28,4123,0,1,487,421,H
2023-04-30T19:00:06Z,ln7kg8ue,serial-reaction-time,1,R,2,1,29,4123,0,1,263.6000000014901,211,L
2023-04-30T19:00:07Z,ln7kg8ue,serial-reaction-time,1,P,2,1,30,4123,0,2,394.30000000447035,112,H
2023-04-30T19:00:07Z,ln7kg8ue,serial-reaction-time,1,R,2,1,31,4123,0,4,311.5,124,L
2023-04-30T19:00:08Z,ln7kg8ue,serial-reaction-time,NA,P,2,1,32,4123,0,3,265.30000000447035,243,H
2023-04-30T19:00:08Z,ln7kg8ue,serial-reaction-time,1,P,2,0,32,4123,0,3,387.80000000447035,243,H
2023-04-30T19:00:08Z,ln7kg8ue,serial-reaction-time,1,R,2,1,33,4123,0,2,365,432,L
2023-04-30T19:00:09Z,ln7kg8ue,serial-reaction-time,1,P,2,1,34,4123,0,4,374.1000000014901,324,H
2023-04-30T19:00:09Z,ln7kg8ue,serial-reaction-time,1,R,2,1,35,4123,0,3,337.3999999985099,243,H
2023-04-30T19:00:10Z,ln7kg8ue,serial-reaction-time,1,P,2,1,36,4123,0,1,384.30000000447035,431,H
2023-04-30T19:00:10Z,ln7kg8ue,serial-reaction-time,1,R,2,1,37,4123,0,3,399.69999999552965,313,T
2023-04-30T19:00:11Z,ln7kg8ue,serial-reaction-time,1,P,2,1,38,4123,0,2,436.30000000447035,132,H
2023-04-30T19:00:12Z,ln7kg8ue,serial-reaction-time,1,R,2,1,39,4123,0,1,533.5,321,L
2023-04-30T19:00:12Z,ln7kg8ue,serial-reaction-time,1,P,2,1,40,4123,0,3,261.20000000298023,213,H
2023-04-30T19:00:12Z,ln7kg8ue,serial-reaction-time,NA,R,2,1,41,4123,0,1,279.40000000596046,131,T
2023-04-30T19:00:13Z,ln7kg8ue,serial-reaction-time,1,R,2,0,41,4123,0,1,619.7000000029802,131,T
2023-04-30T19:00:13Z,ln7kg8ue,serial-reaction-time,1,P,2,1,42,4123,0,4,391.3999999985099,314,H
2023-04-30T19:00:14Z,ln7kg8ue,serial-reaction-time,1,R,2,1,43,4123,0,4,415.69999999552965,144,L
2023-04-30T19:00:14Z,ln7kg8ue,serial-reaction-time,1,P,2,1,44,4123,0,1,370.20000000298023,441,H
2023-04-30T19:00:15Z,ln7kg8ue,serial-reaction-time,1,R,2,1,45,4123,0,1,297,411,H
2023-04-30T19:00:15Z,ln7kg8ue,serial-reaction-time,1,P,2,1,46,4123,0,2,397.69999999552965,112,H
2023-04-30T19:00:16Z,ln7kg8ue,serial-reaction-time,1,R,2,1,47,4123,0,3,292.5,123,L
2023-04-30T19:00:16Z,ln7kg8ue,serial-reaction-time,1,P,2,1,48,4123,0,3,232.5,233,H
2023-04-30T19:00:17Z,ln7kg8ue,serial-reaction-time,1,R,2,1,49,4123,0,2,420,332,L
2023-04-30T19:00:17Z,ln7kg8ue,serial-reaction-time,1,P,2,1,50,4123,0,4,365.69999999552965,324,H
2023-04-30T19:00:18Z,ln7kg8ue,serial-reaction-time,1,R,2,1,51,4123,0,2,413.40000000596046,242,T
2023-04-30T19:00:18Z,ln7kg8ue,serial-reaction-time,1,P,2,1,52,4123,0,1,263.20000000298023,421,H
2023-04-30T19:00:18Z,ln7kg8ue,serial-reaction-time,NA,R,2,1,53,4123,0,4,388.30000000447035,214,L
2023-04-30T19:00:19Z,ln7kg8ue,serial-reaction-time,1,R,2,0,53,4123,0,4,504.1000000014901,214,L
2023-04-30T19:00:19Z,ln7kg8ue,serial-reaction-time,1,P,2,1,54,4123,0,2,419,142,H
2023-04-30T19:00:20Z,ln7kg8ue,serial-reaction-time,1,R,2,1,55,4123,0,3,315.30000000447035,423,L
2023-04-30T19:00:20Z,ln7kg8ue,serial-reaction-time,1,P,2,1,56,4123,0,3,311.8999999985099,233,H
2023-04-30T19:00:21Z,ln7kg8ue,serial-reaction-time,NA,R,2,1,57,4123,0,1,401.69999999552965,331,L
2023-04-30T19:00:21Z,ln7kg8ue,serial-reaction-time,1,R,2,0,57,4123,0,1,733.9999999925494,331,L
2023-04-30T19:00:21Z,ln7kg8ue,serial-reaction-time,1,P,2,1,58,4123,0,4,420.69999999552965,314,H
2023-04-30T19:00:22Z,ln7kg8ue,serial-reaction-time,1,R,2,1,59,4123,0,1,407.5,141,T
2023-04-30T19:00:22Z,ln7kg8ue,serial-reaction-time,1,P,2,1,60,4123,0,1,330.80000000447035,411,H
2023-04-30T19:00:23Z,ln7kg8ue,serial-reaction-time,1,R,2,1,61,4123,0,1,327.8999999985099,111,R
2023-04-30T19:00:23Z,ln7kg8ue,serial-reaction-time,NA,P,2,1,62,4123,0,2,364.5,112,H
2023-04-30T19:00:24Z,ln7kg8ue,serial-reaction-time,1,P,2,0,62,4123,0,2,584.7000000029802,112,H
2023-04-30T19:00:24Z,ln7kg8ue,serial-reaction-time,1,R,2,1,63,4123,0,2,286.8999999985099,122,H
2023-04-30T19:00:25Z,ln7kg8ue,serial-reaction-time,1,P,2,1,64,4123,0,3,398.79999999701977,223,H
2023-04-30T19:00:25Z,ln7kg8ue,serial-reaction-time,1,R,2,1,65,4123,0,1,442.8999999985099,231,L
2023-04-30T19:00:26Z,ln7kg8ue,serial-reaction-time,1,P,2,1,66,4123,0,4,393.3999999985099,314,H
2023-04-30T19:00:26Z,ln7kg8ue,serial-reaction-time,NA,R,2,1,67,4123,0,3,319.79999999701977,143,L
2023-04-30T19:00:26Z,ln7kg8ue,serial-reaction-time,1,R,2,0,67,4123,0,3,477.59999999403954,143,L
2023-04-30T19:00:27Z,ln7kg8ue,serial-reaction-time,1,P,2,1,68,4123,0,1,467,431,H
2023-04-30T19:00:27Z,ln7kg8ue,serial-reaction-time,1,R,2,1,69,4123,0,3,402.8999999985099,313,T
2023-04-30T19:00:28Z,ln7kg8ue,serial-reaction-time,1,P,2,1,70,4123,0,2,474.70000000298023,132,H
2023-04-30T19:00:29Z,ln7kg8ue,serial-reaction-time,1,R,2,1,71,4123,0,3,489.30000000447035,323,T
2023-04-30T19:00:29Z,ln7kg8ue,serial-reaction-time,NA,P,2,1,72,4123,0,3,320.1000000014901,233,H
2023-04-30T19:00:29Z,ln7kg8ue,serial-reaction-time,1,P,2,0,72,4123,0,3,616.9000000059605,233,H
2023-04-30T19:00:30Z,ln7kg8ue,serial-reaction-time,1,R,2,1,73,4123,0,2,283.3999999985099,332,L
2023-04-30T19:00:30Z,ln7kg8ue,serial-reaction-time,1,P,2,1,74,4123,0,4,373.69999999552965,324,H
2023-04-30T19:00:31Z,ln7kg8ue,serial-reaction-time,1,R,2,1,75,4123,0,2,415.1000000014901,242,T
2023-04-30T19:00:31Z,ln7kg8ue,serial-reaction-time,1,P,2,1,76,4123,0,1,295.5,421,H
2023-04-30T19:00:32Z,ln7kg8ue,serial-reaction-time,1,R,2,1,77,4123,0,4,435.29999999701977,214,L
2023-04-30T19:00:32Z,ln7kg8ue,serial-reaction-time,1,P,2,1,78,4123,0,2,427.29999999701977,142,H
2023-04-30T19:00:33Z,ln7kg8ue,serial-reaction-time,1,R,2,1,79,4123,0,1,461,421,H
2023-04-30T19:00:33Z,ln7kg8ue,serial-reaction-time,1,P,2,1,80,4123,0,3,396.29999999701977,213,H
2023-04-30T19:00:38Z,ln7kg8ue,html-keyboard-response,NA,NA,NA,NA,NA,NA,NA,NA,NA,NA,NA
2023-04-30T19:00:39Z,ln7kg8ue,html-keyboard-response,NA,NA,NA,NA,NA,NA,NA,NA,NA,NA,NA
2023-04-30T19:00:40Z,ln7kg8ue,serial-reaction-time,1,R,3,1,1,4123,0,2,414.19999999552965,2,X
2023-04-30T19:00:41Z,ln7kg8ue,serial-reaction-time,1,P,3,1,2,4123,0,4,392.30000000447035,24,X
2023-04-30T19:00:41Z,ln7kg8ue,serial-reaction-time,1,R,3,1,3,4123,0,3,377.80000000447035,243,H
2023-04-30T19:00:42Z,ln7kg8ue,serial-reaction-time,1,P,3,1,4,4123,0,1,436.1000000014901,431,H
2023-04-30T19:00:43Z,ln7kg8ue,serial-reaction-time,1,R,3,1,5,4123,0,2,378.20000000298023,312,L
2023-04-30T19:00:43Z,ln7kg8ue,serial-reaction-time,1,P,3,1,6,4123,0,2,279.3999999985099,122,H
2023-04-30T19:00:43Z,ln7kg8ue,serial-reaction-time,1,R,3,1,7,4123,0,3,309.70000000298023,223,H
2023-04-30T19:00:44Z,ln7kg8ue,serial-reaction-time,1,P,3,1,8,4123,0,3,280.29999999701977,233,H
2023-04-30T19:00:44Z,ln7kg8ue,serial-reaction-time,1,R,3,1,9,4123,0,1,347.5,331,L
2023-04-30T19:00:45Z,ln7kg8ue,serial-reaction-time,1,P,3,1,10,4123,0,4,374.1000000014901,314,H
2023-04-30T19:00:45Z,ln7kg8ue,serial-reaction-time,1,R,3,1,11,4123,0,3,329.6000000014901,143,L
2023-04-30T19:00:46Z,ln7kg8ue,serial-reaction-time,1,P,3,1,12,4123,0,1,315.90000000596046,431,H
2023-04-30T19:00:46Z,ln7kg8ue,serial-reaction-time,1,R,3,1,13,4123,0,2,284.8999999985099,312,L
2023-04-30T19:00:46Z,ln7kg8ue,serial-reaction-time,1,P,3,1,14,4123,0,2,282.30000000447035,122,H
2023-04-30T19:00:47Z,ln7kg8ue,serial-reaction-time,1,R,3,1,15,4123,0,4,315.3999999985099,224,L
2023-04-30T19:00:47Z,ln7kg8ue,serial-reaction-time,1,P,3,1,16,4123,0,3,343,243,H
2023-04-30T19:00:48Z,ln7kg8ue,serial-reaction-time,1,R,3,1,17,4123,0,1,340.29999999701977,431,H
2023-04-30T19:00:48Z,ln7kg8ue,serial-reaction-time,1,P,3,1,18,4123,0,4,335.5,314,H
2023-04-30T19:00:49Z,ln7kg8ue,serial-reaction-time,1,R,3,1,19,4123,0,4,397,144,L
2023-04-30T19:00:49Z,ln7kg8ue,serial-reaction-time,1,P,3,1,20,4123,0,1,336.80000000447035,441,H
2023-04-30T19:00:50Z,ln7kg8ue,serial-reaction-time,NA,R,3,1,21,4123,0,2,243.20000000298023,412,L
2023-04-30T19:00:50Z,ln7kg8ue,serial-reaction-time,1,R,3,0,21,4123,0,2,479.70000000298023,412,L
2023-04-30T19:00:50Z,ln7kg8ue,serial-reaction-time,1,P,3,1,22,4123,0,2,322.09999999403954,122,H
2023-04-30T19:00:51Z,ln7kg8ue,serial-reaction-time,1,R,3,1,23,4123,0,1,330.5,221,L
2023-04-30T19:00:51Z,ln7kg8ue,serial-reaction-time,1,P,3,1,24,4123,0,3,324.29999999701977,213,H
2023-04-30T19:00:52Z,ln7kg8ue,serial-reaction-time,1,R,3,1,25,4123,0,3,299.70000000298023,133,L
2023-04-30T19:00:52Z,ln7kg8ue,serial-reaction-time,1,P,3,1,26,4123,0,4,323.6000000014901,334,H
2023-04-30T19:00:53Z,ln7kg8ue,serial-reaction-time,1,R,3,1,27,4123,0,2,406.1000000014901,342,L
2023-04-30T19:00:53Z,ln7kg8ue,serial-reaction-time,1,P,3,1,28,4123,0,1,298.40000000596046,421,H
2023-04-30T19:00:54Z,ln7kg8ue,serial-reaction-time,1,R,3,1,29,4123,0,1,585,211,L
2023-04-30T19:00:54Z,ln7kg8ue,serial-reaction-time,1,P,3,1,30,4123,0,2,404,112,H
2023-04-30T19:00:55Z,ln7kg8ue,serial-reaction-time,NA,R,3,1,31,4123,0,3,215.60000000149012,123,L
2023-04-30T19:00:55Z,ln7kg8ue,serial-reaction-time,1,R,3,0,31,4123,0,3,449.70000000298023,123,L
2023-04-30T19:00:55Z,ln7kg8ue,serial-reaction-time,1,P,3,1,32,4123,0,3,287.6000000014901,233,H
2023-04-30T19:00:56Z,ln7kg8ue,serial-reaction-time,1,R,3,1,33,4123,0,1,306.29999999701977,331,L
2023-04-30T19:00:56Z,ln7kg8ue,serial-reaction-time,1,P,3,1,34,4123,0,4,396.29999999701977,314,H
2023-04-30T19:00:57Z,ln7kg8ue,serial-reaction-time,NA,R,3,1,35,4123,0,3,345.3999999985099,143,L
2023-04-30T19:00:57Z,ln7kg8ue,serial-reaction-time,1,R,3,0,35,4123,0,3,464.79999999701977,143,L
2023-04-30T19:00:57Z,ln7kg8ue,serial-reaction-time,1,P,3,1,36,4123,0,1,418,431,H
2023-04-30T19:00:58Z,ln7kg8ue,serial-reaction-time,1,R,3,1,37,4123,0,2,335.79999999701977,312,L
2023-04-30T19:00:58Z,ln7kg8ue,serial-reaction-time,1,P,3,1,38,4123,0,2,264.29999999701977,122,H
2023-04-30T19:00:59Z,ln7kg8ue,serial-reaction-time,1,R,3,1,39,4123,0,3,382.3999999985099,223,H
2023-04-30T19:00:59Z,ln7kg8ue,serial-reaction-time,1,P,3,1,40,4123,0,3,274,233,H
2023-04-30T19:01:00Z,ln7kg8ue,serial-reaction-time,1,R,3,1,41,4123,0,1,339.1000000014901,331,L
2023-04-30T19:01:00Z,ln7kg8ue,serial-reaction-time,1,P,3,1,42,4123,0,4,371.80000000447035,314,H
2023-04-30T19:01:01Z,ln7kg8ue,serial-reaction-time,1,R,3,1,43,4123,0,3,319.6000000014901,143,L
2023-04-30T19:01:01Z,ln7kg8ue,serial-reaction-time,1,P,3,1,44,4123,0,1,384.19999999552965,431,H
2023-04-30T19:01:02Z,ln7kg8ue,serial-reaction-time,1,R,3,1,45,4123,0,2,422.6000000014901,312,L
2023-04-30T19:01:02Z,ln7kg8ue,serial-reaction-time,1,P,3,1,46,4123,0,2,358.70000000298023,122,H
2023-04-30T19:01:03Z,ln7kg8ue,serial-reaction-time,1,R,3,1,47,4123,0,4,418.70000000298023,224,L
2023-04-30T19:01:03Z,ln7kg8ue,serial-reaction-time,1,P,3,1,48,4123,0,3,336.70000000298023,243,H
2023-04-30T19:01:04Z,ln7kg8ue,serial-reaction-time,1,R,3,1,49,4123,0,4,498.1000000014901,434,T
2023-04-30T19:01:04Z,ln7kg8ue,serial-reaction-time,1,P,3,1,50,4123,0,4,298.40000000596046,344,H
2023-04-30T19:01:05Z,ln7kg8ue,serial-reaction-time,1,R,3,1,51,4123,0,1,342.30000000447035,441,H
2023-04-30T19:01:05Z,ln7kg8ue,serial-reaction-time,1,P,3,1,52,4123,0,1,320.1000000014901,411,H
2023-04-30T19:01:06Z,ln7kg8ue,serial-reaction-time,1,R,3,1,53,4123,0,1,342.40000000596046,111,R
2023-04-30T19:01:06Z,ln7kg8ue,serial-reaction-time,1,P,3,1,54,4123,0,2,354.70000000298023,112,H
2023-04-30T19:01:07Z,ln7kg8ue,serial-reaction-time,1,R,3,1,55,4123,0,4,363.69999999552965,124,L
2023-04-30T19:01:07Z,ln7kg8ue,serial-reaction-time,1,P,3,1,56,4123,0,3,400,243,H
2023-04-30T19:01:08Z,ln7kg8ue,serial-reaction-time,1,R,3,1,57,4123,0,4,441.8999999985099,434,T
2023-04-30T19:01:08Z,ln7kg8ue,serial-reaction-time,1,P,3,1,58,4123,0,4,608.2999999970198,344,H
2023-04-30T19:01:09Z,ln7kg8ue,serial-reaction-time,1,R,3,1,59,4123,0,1,310.80000000447035,441,H
2023-04-30T19:01:09Z,ln7kg8ue,serial-reaction-time,1,P,3,1,60,4123,0,1,274.20000000298023,411,H
2023-04-30T19:01:10Z,ln7kg8ue,serial-reaction-time,1,R,3,1,61,4123,0,4,384.70000000298023,114,L
2023-04-30T19:01:10Z,ln7kg8ue,serial-reaction-time,1,P,3,1,62,4123,0,2,336,142,H
2023-04-30T19:01:11Z,ln7kg8ue,serial-reaction-time,1,R,3,1,63,4123,0,1,369.29999999701977,421,H
2023-04-30T19:01:11Z,ln7kg8ue,serial-reaction-time,1,P,3,1,64,4123,0,3,369.09999999403954,213,H
2023-04-30T19:01:12Z,ln7kg8ue,serial-reaction-time,1,R,3,1,65,4123,0,2,340.20000000298023,132,H
2023-04-30T19:01:12Z,ln7kg8ue,serial-reaction-time,1,P,3,1,66,4123,0,4,369.6000000014901,324,H
2023-04-30T19:01:13Z,ln7kg8ue,serial-reaction-time,1,R,3,1,67,4123,0,4,365.19999999552965,244,L
2023-04-30T19:01:13Z,ln7kg8ue,serial-reaction-time,1,P,3,1,68,4123,0,1,287.3999999985099,441,H
2023-04-30T19:01:14Z,ln7kg8ue,serial-reaction-time,NA,R,3,1,69,4123,0,3,354.5,413,L
2023-04-30T19:01:14Z,ln7kg8ue,serial-reaction-time,1,R,3,0,69,4123,0,3,786.6000000014901,413,L
2023-04-30T19:01:14Z,ln7kg8ue,serial-reaction-time,1,P,3,1,70,4123,0,2,333.3999999985099,132,H
2023-04-30T19:01:15Z,ln7kg8ue,serial-reaction-time,1,R,3,1,71,4123,0,3,407.80000000447035,323,T
2023-04-30T19:01:15Z,ln7kg8ue,serial-reaction-time,1,P,3,1,72,4123,0,3,289.5,233,H
2023-04-30T19:01:16Z,ln7kg8ue,serial-reaction-time,1,R,3,1,73,4123,0,3,324.19999999552965,333,R
2023-04-30T19:01:16Z,ln7kg8ue,serial-reaction-time,1,P,3,1,74,4123,0,4,359.30000000447035,334,H
2023-04-30T19:01:17Z,ln7kg8ue,serial-reaction-time,1,R,3,1,75,4123,0,3,409.29999999701977,343,T
2023-04-30T19:01:17Z,ln7kg8ue,serial-reaction-time,1,P,3,1,76,4123,0,1,405.5,431,H
2023-04-30T19:01:18Z,ln7kg8ue,serial-reaction-time,1,R,3,1,77,4123,0,1,270.8999999985099,311,L
2023-04-30T19:01:18Z,ln7kg8ue,serial-reaction-time,1,P,3,1,78,4123,0,2,361.5,112,H
2023-04-30T19:01:19Z,ln7kg8ue,serial-reaction-time,1,R,3,1,79,4123,0,2,342.6000000014901,122,H
2023-04-30T19:01:19Z,ln7kg8ue,serial-reaction-time,NA,P,3,1,80,4123,0,3,512.6000000014901,223,H
2023-04-30T19:01:20Z,ln7kg8ue,serial-reaction-time,1,P,3,0,80,4123,0,3,658.3999999985099,223,H
2023-04-30T19:01:25Z,ln7kg8ue,html-keyboard-response,NA,NA,NA,NA,NA,NA,NA,NA,NA,NA,NA
2023-04-30T19:01:25Z,ln7kg8ue,html-keyboard-response,NA,NA,NA,NA,NA,NA,NA,NA,NA,NA,NA
2023-04-30T19:01:26Z,ln7kg8ue,serial-reaction-time,NA,R,4,1,1,4123,0,1,446.5,1,X
2023-04-30T19:01:27Z,ln7kg8ue,serial-reaction-time,1,R,4,0,1,4123,0,1,948.2000000029802,1,X
2023-04-30T19:01:28Z,ln7kg8ue,serial-reaction-time,1,P,4,1,2,4123,0,4,505.8999999985099,14,X
2023-04-30T19:01:28Z,ln7kg8ue,serial-reaction-time,1,R,4,1,3,4123,0,4,304.20000000298023,144,L
2023-04-30T19:01:28Z,ln7kg8ue,serial-reaction-time,NA,P,4,1,4,4123,0,1,318.5,441,H
2023-04-30T19:01:29Z,ln7kg8ue,serial-reaction-time,1,P,4,0,4,4123,0,1,793,441,H
2023-04-30T19:01:29Z,ln7kg8ue,serial-reaction-time,1,R,4,1,5,4123,0,1,274.70000000298023,411,H
2023-04-30T19:01:30Z,ln7kg8ue,serial-reaction-time,1,P,4,1,6,4123,0,2,327.30000000447035,112,H
2023-04-30T19:01:30Z,ln7kg8ue,serial-reaction-time,1,R,4,1,7,4123,0,4,435.8999999985099,124,L
2023-04-30T19:01:31Z,ln7kg8ue,serial-reaction-time,1,P,4,1,8,4123,0,3,344.80000000447035,243,H
2023-04-30T19:01:31Z,ln7kg8ue,serial-reaction-time,1,R,4,1,9,4123,0,3,287.70000000298023,433,L
2023-04-30T19:01:32Z,ln7kg8ue,serial-reaction-time,1,P,4,1,10,4123,0,4,327.19999999552965,334,H
2023-04-30T19:01:32Z,ln7kg8ue,serial-reaction-time,1,R,4,1,11,4123,0,1,386.5,341,L
2023-04-30T19:01:33Z,ln7kg8ue,serial-reaction-time,1,P,4,1,12,4123,0,1,280.70000000298023,411,H
2023-04-30T19:01:33Z,ln7kg8ue,serial-reaction-time,1,R,4,1,13,4123,0,1,298,111,R
2023-04-30T19:01:34Z,ln7kg8ue,serial-reaction-time,1,P,4,1,14,4123,0,2,389.3999999985099,112,H
2023-04-30T19:01:34Z,ln7kg8ue,serial-reaction-time,1,R,4,1,15,4123,0,3,356.5,123,L
2023-04-30T19:01:34Z,ln7kg8ue,serial-reaction-time,1,P,4,1,16,4123,0,3,317.6000000014901,233,H
2023-04-30T19:01:35Z,ln7kg8ue,serial-reaction-time,1,R,4,1,17,4123,0,3,302.19999999552965,333,R
2023-04-30T19:01:35Z,ln7kg8ue,serial-reaction-time,1,P,4,1,18,4123,0,4,321.6000000014901,334,H
2023-04-30T19:01:36Z,ln7kg8ue,serial-reaction-time,1,R,4,1,19,4123,0,4,286.29999999701977,344,H
2023-04-30T19:01:36Z,ln7kg8ue,serial-reaction-time,1,P,4,1,20,4123,0,1,285.6000000014901,441,H
2023-04-30T19:01:37Z,ln7kg8ue,serial-reaction-time,1,R,4,1,21,4123,0,2,274.79999999701977,412,L
2023-04-30T19:01:37Z,ln7kg8ue,serial-reaction-time,1,P,4,1,22,4123,0,2,305.6000000014901,122,H
2023-04-30T19:01:37Z,ln7kg8ue,serial-reaction-time,1,R,4,1,23,4123,0,3,322.3999999985099,223,H
2023-04-30T19:01:38Z,ln7kg8ue,serial-reaction-time,1,P,4,1,24,4123,0,3,279.20000000298023,233,H
2023-04-30T19:01:38Z,ln7kg8ue,serial-reaction-time,1,R,4,1,25,4123,0,2,367,332,L
2023-04-30T19:01:39Z,ln7kg8ue,serial-reaction-time,1,P,4,1,26,4123,0,4,370.59999999403954,324,H
2023-04-30T19:01:39Z,ln7kg8ue,serial-reaction-time,1,R,4,1,27,4123,0,4,315,244,L
2023-04-30T19:01:40Z,ln7kg8ue,serial-reaction-time,1,P,4,1,28,4123,0,1,379.79999999701977,441,H
2023-04-30T19:01:40Z,ln7kg8ue,serial-reaction-time,NA,R,4,1,29,4123,0,4,457.20000000298023,414,T
2023-04-30T19:01:41Z,ln7kg8ue,serial-reaction-time,NA,R,4,0,29,4123,0,4,913.10000000149,414,T
2023-04-30T19:01:41Z,ln7kg8ue,serial-reaction-time,1,R,4,0,29,4123,0,4,1107.39999999851,414,T
2023-04-30T19:01:42Z,ln7kg8ue,serial-reaction-time,1,P,4,1,30,4123,0,2,335.70000000298023,142,H
2023-04-30T19:01:42Z,ln7kg8ue,serial-reaction-time,1,R,4,1,31,4123,0,4,326.5,424,T
2023-04-30T19:01:42Z,ln7kg8ue,serial-reaction-time,NA,P,4,1,32,4123,0,3,391.1000000014901,243,H
2023-04-30T19:01:43Z,ln7kg8ue,serial-reaction-time,1,P,4,0,32,4123,0,3,517.1000000014901,243,H
2023-04-30T19:01:43Z,ln7kg8ue,serial-reaction-time,1,R,4,1,33,4123,0,1,466.8999999985099,431,H
2023-04-30T19:01:44Z,ln7kg8ue,serial-reaction-time,1,P,4,1,34,4123,0,4,367.70000000298023,314,H
2023-04-30T19:01:44Z,ln7kg8ue,serial-reaction-time,1,R,4,1,35,4123,0,3,293.29999999701977,143,L
2023-04-30T19:01:45Z,ln7kg8ue,serial-reaction-time,1,P,4,1,36,4123,0,1,590.1999999955297,431,H
2023-04-30T19:01:45Z,ln7kg8ue,serial-reaction-time,1,R,4,1,37,4123,0,3,349.3999999985099,313,T
2023-04-30T19:01:46Z,ln7kg8ue,serial-reaction-time,1,P,4,1,38,4123,0,2,424.79999999701977,132,H
2023-04-30T19:01:46Z,ln7kg8ue,serial-reaction-time,1,R,4,1,39,4123,0,3,416.29999999701977,323,T
2023-04-30T19:01:47Z,ln7kg8ue,serial-reaction-time,1,P,4,1,40,4123,0,3,290.3999999985099,233,H
2023-04-30T19:01:47Z,ln7kg8ue,serial-reaction-time,1,R,4,1,41,4123,0,4,316.69999999552965,334,H
2023-04-30T19:01:48Z,ln7kg8ue,serial-reaction-time,1,P,4,1,42,4123,0,4,335.30000000447035,344,H
2023-04-30T19:01:48Z,ln7kg8ue,serial-reaction-time,1,R,4,1,43,4123,0,2,469.69999999552965,442,L
2023-04-30T19:01:49Z,ln7kg8ue,serial-reaction-time,1,P,4,1,44,4123,0,1,300,421,H
2023-04-30T19:01:49Z,ln7kg8ue,serial-reaction-time,1,R,4,1,45,4123,0,4,402.30000000447035,214,L
2023-04-30T19:01:50Z,ln7kg8ue,serial-reaction-time,1,P,4,1,46,4123,0,2,270.70000000298023,142,H
2023-04-30T19:01:50Z,ln7kg8ue,serial-reaction-time,1,R,4,1,47,4123,0,1,378.8999999985099,421,H
2023-04-30T19:01:51Z,ln7kg8ue,serial-reaction-time,NA,P,4,1,48,4123,0,3,326.90000000596046,213,H
2023-04-30T19:01:51Z,ln7kg8ue,serial-reaction-time,1,P,4,0,48,4123,0,3,658.4000000059605,213,H
2023-04-30T19:01:51Z,ln7kg8ue,serial-reaction-time,1,R,4,1,49,4123,0,1,315.5,131,T
2023-04-30T19:01:52Z,ln7kg8ue,serial-reaction-time,1,P,4,1,50,4123,0,4,430.80000000447035,314,H
2023-04-30T19:01:52Z,ln7kg8ue,serial-reaction-time,1,R,4,1,51,4123,0,2,335.69999999552965,142,H
2023-04-30T19:01:53Z,ln7kg8ue,serial-reaction-time,1,P,4,1,52,4123,0,1,501.59999999403954,421,H
2023-04-30T19:01:54Z,ln7kg8ue,serial-reaction-time,1,R,4,1,53,4123,0,4,408.8999999985099,214,L
2023-04-30T19:01:54Z,ln7kg8ue,serial-reaction-time,1,P,4,1,54,4123,0,2,436.09999999403954,142,H
2023-04-30T19:01:55Z,ln7kg8ue,serial-reaction-time,1,R,4,1,55,4123,0,1,297.3999999985099,421,H
2023-04-30T19:01:55Z,ln7kg8ue,serial-reaction-time,NA,P,4,1,56,4123,0,3,345.6000000014901,213,H
2023-04-30T19:01:55Z,ln7kg8ue,serial-reaction-time,1,P,4,0,56,4123,0,3,570.2000000029802,213,H
2023-04-30T19:01:56Z,ln7kg8ue,serial-reaction-time,1,R,4,1,57,4123,0,1,333.20000000298023,131,T
2023-04-30T19:01:56Z,ln7kg8ue,serial-reaction-time,1,P,4,1,58,4123,0,4,300.3999999985099,314,H
2023-04-30T19:01:57Z,ln7kg8ue,serial-reaction-time,NA,R,4,1,59,4123,0,3,298.80000000447035,143,L
2023-04-30T19:01:57Z,ln7kg8ue,serial-reaction-time,1,R,4,0,59,4123,0,3,426.5000000074506,143,L
2023-04-30T19:01:57Z,ln7kg8ue,serial-reaction-time,1,P,4,1,60,4123,0,1,323,431,H
2023-04-30T19:01:58Z,ln7kg8ue,serial-reaction-time,1,R,4,1,61,4123,0,3,287.8999999985099,313,T
2023-04-30T19:01:58Z,ln7kg8ue,serial-reaction-time,1,P,4,1,62,4123,0,2,395.20000000298023,132,H
2023-04-30T19:01:59Z,ln7kg8ue,serial-reaction-time,NA,R,4,1,63,4123,0,3,334.3999999985099,323,T
2023-04-30T19:01:59Z,ln7kg8ue,serial-reaction-time,1,R,4,0,63,4123,0,3,510.3999999985099,323,T
2023-04-30T19:01:59Z,ln7kg8ue,serial-reaction-time,1,P,4,1,64,4123,0,3,339.5,233,H
2023-04-30T19:02:00Z,ln7kg8ue,serial-reaction-time,1,R,4,1,65,4123,0,2,350.40000000596046,332,L
2023-04-30T19:02:00Z,ln7kg8ue,serial-reaction-time,1,P,4,1,66,4123,0,4,330.20000000298023,324,H
2023-04-30T19:02:01Z,ln7kg8ue,serial-reaction-time,1,R,4,1,67,4123,0,4,297.1000000014901,244,L
2023-04-30T19:02:01Z,ln7kg8ue,serial-reaction-time,1,P,4,1,68,4123,0,1,356.79999999701977,441,H
2023-04-30T19:02:01Z,ln7kg8ue,serial-reaction-time,NA,R,4,1,69,4123,0,2,305.6000000014901,412,L
2023-04-30T19:02:02Z,ln7kg8ue,serial-reaction-time,1,R,4,0,69,4123,0,2,508.1000000014901,412,L
2023-04-30T19:02:02Z,ln7kg8ue,serial-reaction-time,1,P,4,1,70,4123,0,2,291,122,H
2023-04-30T19:02:03Z,ln7kg8ue,serial-reaction-time,1,R,4,1,71,4123,0,2,324.3999999985099,222,R
2023-04-30T19:02:03Z,ln7kg8ue,serial-reaction-time,1,P,4,1,72,4123,0,3,329.8999999985099,223,H
2023-04-30T19:02:03Z,ln7kg8ue,serial-reaction-time,1,R,4,1,73,4123,0,3,283.6000000014901,233,H
2023-04-30T19:02:04Z,ln7kg8ue,serial-reaction-time,1,P,4,1,74,4123,0,4,369.59999999403954,334,H
2023-04-30T19:02:04Z,ln7kg8ue,serial-reaction-time,1,R,4,1,75,4123,0,3,427.20000000298023,343,T
2023-04-30T19:02:05Z,ln7kg8ue,serial-reaction-time,1,P,4,1,76,4123,0,1,468.5,431,H
2023-04-30T19:02:05Z,ln7kg8ue,serial-reaction-time,1,R,4,1,77,4123,0,4,264.29999999701977,314,H
2023-04-30T19:02:06Z,ln7kg8ue,serial-reaction-time,1,P,4,1,78,4123,0,2,317.79999999701977,142,H
2023-04-30T19:02:06Z,ln7kg8ue,serial-reaction-time,1,R,4,1,79,4123,0,4,330.3999999985099,424,T
2023-04-30T19:02:07Z,ln7kg8ue,serial-reaction-time,1,P,4,1,80,4123,0,3,503.8999999985099,243,H
2023-04-30T19:02:12Z,ln7kg8ue,html-keyboard-response,NA,NA,NA,NA,NA,NA,NA,NA,NA,NA,NA
2023-04-30T19:02:13Z,ln7kg8ue,html-keyboard-response,NA,NA,NA,NA,NA,NA,NA,NA,NA,NA,NA
2023-04-30T19:02:14Z,ln7kg8ue,serial-reaction-time,1,R,5,1,1,4123,0,1,344.3999999985099,1,X
2023-04-30T19:02:15Z,ln7kg8ue,serial-reaction-time,1,P,5,1,2,4123,0,4,316.8999999985099,14,X
2023-04-30T19:02:15Z,ln7kg8ue,serial-reaction-time,1,R,5,1,3,4123,0,3,274.30000000447035,143,L
2023-04-30T19:02:16Z,ln7kg8ue,serial-reaction-time,1,P,5,1,4,4123,0,1,430.40000000596046,431,H
2023-04-30T19:02:16Z,ln7kg8ue,serial-reaction-time,1,R,5,1,5,4123,0,4,343.5,314,H
2023-04-30T19:02:17Z,ln7kg8ue,serial-reaction-time,1,P,5,1,6,4123,0,2,313.19999999552965,142,H
2023-04-30T19:02:17Z,ln7kg8ue,serial-reaction-time,1,R,5,1,7,4123,0,4,318.3999999985099,424,T
2023-04-30T19:02:18Z,ln7kg8ue,serial-reaction-time,1,P,5,1,8,4123,0,3,365.3999999985099,243,H
2023-04-30T19:02:18Z,ln7kg8ue,serial-reaction-time,1,R,5,1,9,4123,0,1,326.5,431,H
2023-04-30T19:02:19Z,ln7kg8ue,serial-reaction-time,1,P,5,1,10,4123,0,4,302,314,H
2023-04-30T19:02:19Z,ln7kg8ue,serial-reaction-time,1,R,5,1,11,4123,0,1,400.6000000014901,141,T
2023-04-30T19:02:20Z,ln7kg8ue,serial-reaction-time,1,P,5,1,12,4123,0,1,284.1000000014901,411,H
2023-04-30T19:02:20Z,ln7kg8ue,serial-reaction-time,1,R,5,1,13,4123,0,2,371.79999999701977,112,H
2023-04-30T19:02:20Z,ln7kg8ue,serial-reaction-time,1,P,5,1,14,4123,0,2,329.29999999701977,122,H
2023-04-30T19:02:21Z,ln7kg8ue,serial-reaction-time,1,R,5,1,15,4123,0,2,340.1000000014901,222,R
2023-04-30T19:02:21Z,ln7kg8ue,serial-reaction-time,1,P,5,1,16,4123,0,3,330.8999999985099,223,H
2023-04-30T19:02:22Z,ln7kg8ue,serial-reaction-time,1,R,5,1,17,4123,0,2,551.2999999970198,232,T
2023-04-30T19:02:23Z,ln7kg8ue,serial-reaction-time,1,P,5,1,18,4123,0,4,313.80000000447035,324,H
2023-04-30T19:02:23Z,ln7kg8ue,serial-reaction-time,1,R,5,1,19,4123,0,2,298.5,242,T
2023-04-30T19:02:23Z,ln7kg8ue,serial-reaction-time,1,P,5,1,20,4123,0,1,347,421,H
2023-04-30T19:02:24Z,ln7kg8ue,serial-reaction-time,1,R,5,1,21,4123,0,1,573.5,211,L
2023-04-30T19:02:25Z,ln7kg8ue,serial-reaction-time,1,P,5,1,22,4123,0,2,336.19999999552965,112,H
2023-04-30T19:02:25Z,ln7kg8ue,serial-reaction-time,NA,R,5,1,23,4123,0,1,328.70000000298023,121,T
2023-04-30T19:02:25Z,ln7kg8ue,serial-reaction-time,1,R,5,0,23,4123,0,1,577.7000000029802,121,T
2023-04-30T19:02:26Z,ln7kg8ue,serial-reaction-time,1,P,5,1,24,4123,0,3,391,213,H
2023-04-30T19:02:26Z,ln7kg8ue,serial-reaction-time,1,R,5,1,25,4123,0,2,461.59999999403954,132,H
2023-04-30T19:02:27Z,ln7kg8ue,serial-reaction-time,1,P,5,1,26,4123,0,4,285.79999999701977,324,H
2023-04-30T19:02:27Z,ln7kg8ue,serial-reaction-time,NA,R,5,1,27,4123,0,2,287.20000000298023,242,T
2023-04-30T19:02:27Z,ln7kg8ue,serial-reaction-time,1,R,5,0,27,4123,0,2,459.80000000447035,242,T
2023-04-30T19:02:28Z,ln7kg8ue,serial-reaction-time,1,P,5,1,28,4123,0,1,385.5,421,H
2023-04-30T19:02:29Z,ln7kg8ue,serial-reaction-time,1,R,5,1,29,4123,0,4,483.3999999985099,214,L
2023-04-30T19:02:29Z,ln7kg8ue,serial-reaction-time,1,P,5,1,30,4123,0,2,325.3999999985099,142,H
2023-04-30T19:02:29Z,ln7kg8ue,serial-reaction-time,1,R,5,1,31,4123,0,3,325.09999999403954,423,L
2023-04-30T19:02:30Z,ln7kg8ue,serial-reaction-time,1,P,5,1,32,4123,0,3,278.5,233,H
2023-04-30T19:02:30Z,ln7kg8ue,serial-reaction-time,1,R,5,1,33,4123,0,1,354.5,331,L
2023-04-30T19:02:31Z,ln7kg8ue,serial-reaction-time,1,P,5,1,34,4123,0,4,341.5,314,H
2023-04-30T19:02:31Z,ln7kg8ue,serial-reaction-time,1,R,5,1,35,4123,0,1,410.90000000596046,141,T
2023-04-30T19:02:32Z,ln7kg8ue,serial-reaction-time,1,P,5,1,36,4123,0,1,336.8999999985099,411,H
2023-04-30T19:02:32Z,ln7kg8ue,serial-reaction-time,1,R,5,1,37,4123,0,4,339.19999999552965,114,L
2023-04-30T19:02:33Z,ln7kg8ue,serial-reaction-time,1,P,5,1,38,4123,0,2,415.3999999985099,142,H
2023-04-30T19:02:33Z,ln7kg8ue,serial-reaction-time,NA,R,5,1,39,4123,0,4,301.70000000298023,424,T
2023-04-30T19:02:34Z,ln7kg8ue,serial-reaction-time,1,R,5,0,39,4123,0,4,667,424,T
2023-04-30T19:02:34Z,ln7kg8ue,serial-reaction-time,1,P,5,1,40,4123,0,3,489.1000000014901,243,H
2023-04-30T19:02:35Z,ln7kg8ue,serial-reaction-time,1,R,5,1,41,4123,0,1,444.3999999985099,431,H
2023-04-30T19:02:35Z,ln7kg8ue,serial-reaction-time,NA,P,5,1,42,4123,0,4,315.3999999985099,314,H
2023-04-30T19:02:35Z,ln7kg8ue,serial-reaction-time,1,P,5,0,42,4123,0,4,468.19999999552965,314,H
2023-04-30T19:02:36Z,ln7kg8ue,serial-reaction-time,1,R,5,1,43,4123,0,3,387.79999999701977,143,L
2023-04-30T19:02:37Z,ln7kg8ue,serial-reaction-time,1,P,5,1,44,4123,0,1,550.7999999970198,431,H
2023-04-30T19:02:37Z,ln7kg8ue,serial-reaction-time,NA,R,5,1,45,4123,0,3,407.69999999552965,313,T
2023-04-30T19:02:37Z,ln7kg8ue,serial-reaction-time,1,R,5,0,45,4123,0,3,649.7999999970198,313,T
2023-04-30T19:02:38Z,ln7kg8ue,serial-reaction-time,1,P,5,1,46,4123,0,2,275.80000000447035,132,H
2023-04-30T19:02:38Z,ln7kg8ue,serial-reaction-time,1,R,5,1,47,4123,0,4,385.6000000014901,324,H
2023-04-30T19:02:39Z,ln7kg8ue,serial-reaction-time,1,P,5,1,48,4123,0,3,422.19999999552965,243,H
2023-04-30T19:02:39Z,ln7kg8ue,serial-reaction-time,1,R,5,1,49,4123,0,3,315.6000000014901,433,L
2023-04-30T19:02:40Z,ln7kg8ue,serial-reaction-time,1,P,5,1,50,4123,0,4,404.80000000447035,334,H
2023-04-30T19:02:40Z,ln7kg8ue,serial-reaction-time,1,R,5,1,51,4123,0,3,413,343,T
2023-04-30T19:02:41Z,ln7kg8ue,serial-reaction-time,1,P,5,1,52,4123,0,1,427,431,H
2023-04-30T19:02:41Z,ln7kg8ue,serial-reaction-time,1,R,5,1,53,4123,0,3,395.20000000298023,313,T
2023-04-30T19:02:42Z,ln7kg8ue,serial-reaction-time,1,P,5,1,54,4123,0,2,368.20000000298023,132,H
2023-04-30T19:02:42Z,ln7kg8ue,serial-reaction-time,1,R,5,1,55,4123,0,4,269.29999999701977,324,H
2023-04-30T19:02:43Z,ln7kg8ue,serial-reaction-time,1,P,5,1,56,4123,0,3,392.20000000298023,243,H
2023-04-30T19:02:43Z,ln7kg8ue,serial-reaction-time,1,R,5,1,57,4123,0,4,423.8999999985099,434,T
2023-04-30T19:02:44Z,ln7kg8ue,serial-reaction-time,1,P,5,1,58,4123,0,4,387.70000000298023,344,H
2023-04-30T19:02:44Z,ln7kg8ue,serial-reaction-time,1,R,5,1,59,4123,0,1,396.90000000596046,441,H
2023-04-30T19:02:45Z,ln7kg8ue,serial-reaction-time,1,P,5,1,60,4123,0,1,267.19999999552965,411,H
2023-04-30T19:02:45Z,ln7kg8ue,serial-reaction-time,1,R,5,1,61,4123,0,1,316.8999999985099,111,R
2023-04-30T19:02:46Z,ln7kg8ue,serial-reaction-time,1,P,5,1,62,4123,0,2,527.5,112,H
2023-04-30T19:02:46Z,ln7kg8ue,serial-reaction-time,1,R,5,1,63,4123,0,2,290.1000000014901,122,H
2023-04-30T19:02:47Z,ln7kg8ue,serial-reaction-time,1,P,5,1,64,4123,0,3,438.3999999985099,223,H
2023-04-30T19:02:47Z,ln7kg8ue,serial-reaction-time,1,R,5,1,65,4123,0,1,492.30000000447035,231,L
2023-04-30T19:02:48Z,ln7kg8ue,serial-reaction-time,1,P,5,1,66,4123,0,4,429.8999999985099,314,H
2023-04-30T19:02:49Z,ln7kg8ue,serial-reaction-time,1,R,5,1,67,4123,0,1,355.90000000596046,141,T
2023-04-30T19:02:49Z,ln7kg8ue,serial-reaction-time,1,P,5,1,68,4123,0,1,271.3999999985099,411,H
2023-04-30T19:02:49Z,ln7kg8ue,serial-reaction-time,1,R,5,1,69,4123,0,2,347.90000000596046,112,H
2023-04-30T19:02:50Z,ln7kg8ue,serial-reaction-time,1,P,5,1,70,4123,0,2,300.70000000298023,122,H
2023-04-30T19:02:50Z,ln7kg8ue,serial-reaction-time,1,R,5,1,71,4123,0,3,357.69999999552965,223,H
2023-04-30T19:02:51Z,ln7kg8ue,serial-reaction-time,1,P,5,1,72,4123,0,3,263.8999999985099,233,H
2023-04-30T19:02:51Z,ln7kg8ue,serial-reaction-time,1,R,5,1,73,4123,0,4,436.8999999985099,334,H
2023-04-30T19:02:52Z,ln7kg8ue,serial-reaction-time,1,P,5,1,74,4123,0,4,264.6000000014901,344,H
2023-04-30T19:02:52Z,ln7kg8ue,serial-reaction-time,1,R,5,1,75,4123,0,4,348,444,R
2023-04-30T19:02:53Z,ln7kg8ue,serial-reaction-time,1,P,5,1,76,4123,0,1,379.30000000447035,441,H
2023-04-30T19:02:53Z,ln7kg8ue,serial-reaction-time,1,R,5,1,77,4123,0,3,335.80000000447035,413,L
2023-04-30T19:02:54Z,ln7kg8ue,serial-reaction-time,1,P,5,1,78,4123,0,2,320.6000000014901,132,H
2023-04-30T19:02:54Z,ln7kg8ue,serial-reaction-time,NA,R,5,1,79,4123,0,3,305.19999999552965,323,T
2023-04-30T19:02:54Z,ln7kg8ue,serial-reaction-time,1,R,5,0,79,4123,0,3,558.1999999955297,323,T
2023-04-30T19:02:55Z,ln7kg8ue,serial-reaction-time,1,P,5,1,80,4123,0,3,381.19999999552965,233,H
2023-04-30T19:03:00Z,ln7kg8ue,html-keyboard-response,NA,NA,NA,NA,NA,NA,NA,NA,NA,NA,NA
2023-04-30T19:03:00Z,ln7kg8ue,html-keyboard-response,NA,NA,NA,NA,NA,NA,NA,NA,NA,NA,NA
2023-04-30T19:03:01Z,ln7kg8ue,fullscreen,NA,NA,NA,NA,NA,NA,NA,NA,NA,NA,NA
2023-04-30T20:24:33Z,0ldaeete,fullscreen,NA,NA,NA,NA,NA,NA,NA,NA,NA,NA,NA
2023-04-30T20:24:36Z,0ldaeete,html-keyboard-response,NA,NA,NA,NA,NA,NA,NA,NA,NA,NA,NA
2023-04-30T20:24:38Z,0ldaeete,serial-reaction-time,1,R,1,1,1,1423,0,2,902,2,X
2023-04-30T20:24:39Z,0ldaeete,serial-reaction-time,1,P,1,1,2,1423,0,1,443,21,X
2023-04-30T20:24:40Z,0ldaeete,serial-reaction-time,1,R,1,1,3,1423,0,3,802,213,H
2023-04-30T20:24:40Z,0ldaeete,serial-reaction-time,1,P,1,1,4,1423,0,4,358,134,H
2023-04-30T20:24:41Z,0ldaeete,serial-reaction-time,1,R,1,1,5,1423,0,1,370,341,H
2023-04-30T20:24:41Z,0ldaeete,serial-reaction-time,1,P,1,1,6,1423,0,2,360,412,H
2023-04-30T20:24:42Z,0ldaeete,serial-reaction-time,1,R,1,1,7,1423,0,2,301,122,L
2023-04-30T20:24:42Z,0ldaeete,serial-reaction-time,1,P,1,1,8,1423,0,3,408,223,H
2023-04-30T20:24:43Z,0ldaeete,serial-reaction-time,NA,R,1,1,9,1423,0,2,344,232,T
2023-04-30T20:24:43Z,0ldaeete,serial-reaction-time,1,R,1,0,9,1423,0,2,396,232,T
2023-04-30T20:24:43Z,0ldaeete,serial-reaction-time,1,P,1,1,10,1423,0,1,329,321,H
2023-04-30T20:24:44Z,0ldaeete,serial-reaction-time,1,R,1,1,11,1423,0,1,413,211,L
2023-04-30T20:24:45Z,0ldaeete,serial-reaction-time,1,P,1,1,12,1423,0,4,405,114,H
2023-04-30T20:24:45Z,0ldaeete,serial-reaction-time,1,R,1,1,13,1423,0,2,362,142,L
2023-04-30T20:24:45Z,0ldaeete,serial-reaction-time,1,P,1,1,14,1423,0,2,344,422,H
2023-04-30T20:24:46Z,0ldaeete,serial-reaction-time,1,R,1,1,15,1423,0,3,502,223,H
2023-04-30T20:24:47Z,0ldaeete,serial-reaction-time,1,P,1,1,16,1423,0,3,315,233,H
2023-04-30T20:24:47Z,0ldaeete,serial-reaction-time,1,R,1,1,17,1423,0,4,310,334,L
2023-04-30T20:24:47Z,0ldaeete,serial-reaction-time,1,P,1,1,18,1423,0,1,327,341,H
2023-04-30T20:24:48Z,0ldaeete,serial-reaction-time,1,R,1,1,19,1423,0,4,290,414,T
2023-04-30T20:24:48Z,0ldaeete,serial-reaction-time,1,P,1,1,20,1423,0,4,298,144,H
2023-04-30T20:24:49Z,0ldaeete,serial-reaction-time,1,R,1,1,21,1423,0,4,267,444,R
2023-04-30T20:24:49Z,0ldaeete,serial-reaction-time,1,P,1,1,22,1423,0,2,491,442,H
2023-04-30T20:24:50Z,0ldaeete,serial-reaction-time,1,R,1,1,23,1423,0,2,229,422,H
2023-04-30T20:24:51Z,0ldaeete,serial-reaction-time,1,P,1,1,24,1423,0,3,1069,223,H
2023-04-30T20:24:51Z,0ldaeete,serial-reaction-time,1,R,1,1,25,1423,0,3,206,233,H
2023-04-30T20:24:52Z,0ldaeete,serial-reaction-time,1,P,1,1,26,1423,0,1,321,331,H
2023-04-30T20:24:52Z,0ldaeete,serial-reaction-time,NA,R,1,1,27,1423,0,2,221,312,L
2023-04-30T20:24:52Z,0ldaeete,serial-reaction-time,1,R,1,0,27,1423,0,2,437,312,L
2023-04-30T20:24:53Z,0ldaeete,serial-reaction-time,NA,P,1,1,28,1423,0,4,168,124,H
2023-04-30T20:24:53Z,0ldaeete,serial-reaction-time,1,P,1,0,28,1423,0,4,312,124,H
2023-04-30T20:24:53Z,0ldaeete,serial-reaction-time,NA,R,1,1,29,1423,0,1,174,241,L
2023-04-30T20:24:53Z,0ldaeete,serial-reaction-time,1,R,1,0,29,1423,0,1,374,241,L
2023-04-30T20:24:54Z,0ldaeete,serial-reaction-time,NA,P,1,1,30,1423,0,2,171,412,H
2023-04-30T20:24:54Z,0ldaeete,serial-reaction-time,NA,P,1,0,30,1423,0,2,380,412,H
2023-04-30T20:24:54Z,0ldaeete,serial-reaction-time,1,P,1,0,30,1423,0,2,595,412,H
2023-04-30T20:24:55Z,0ldaeete,serial-reaction-time,1,R,1,1,31,1423,0,4,289,124,H
2023-04-30T20:24:55Z,0ldaeete,serial-reaction-time,1,P,1,1,32,1423,0,3,308,243,H
2023-04-30T20:24:55Z,0ldaeete,serial-reaction-time,1,R,1,1,33,1423,0,2,303,432,H
2023-04-30T20:24:56Z,0ldaeete,serial-reaction-time,1,P,1,1,34,1423,0,1,338,321,H
2023-04-30T20:24:56Z,0ldaeete,serial-reaction-time,NA,R,1,1,35,1423,0,3,259,213,H
2023-04-30T20:24:57Z,0ldaeete,serial-reaction-time,1,R,1,0,35,1423,0,3,602,213,H
2023-04-30T20:24:57Z,0ldaeete,serial-reaction-time,1,P,1,1,36,1423,0,4,319,134,H
2023-04-30T20:24:58Z,0ldaeete,serial-reaction-time,NA,R,1,1,37,1423,0,1,329,341,H
2023-04-30T20:24:58Z,0ldaeete,serial-reaction-time,1,R,1,0,37,1423,0,1,461,341,H
2023-04-30T20:24:58Z,0ldaeete,serial-reaction-time,1,P,1,1,38,1423,0,2,345,412,H
2023-04-30T20:24:59Z,0ldaeete,serial-reaction-time,NA,R,1,1,39,1423,0,3,300,123,L
2023-04-30T20:25:00Z,0ldaeete,serial-reaction-time,1,R,1,0,39,1423,0,3,1425,123,L
2023-04-30T20:25:00Z,0ldaeete,serial-reaction-time,1,P,1,1,40,1423,0,3,321,233,H
2023-04-30T20:25:01Z,0ldaeete,serial-reaction-time,1,R,1,1,41,1423,0,2,692,332,L
2023-04-30T20:25:02Z,0ldaeete,serial-reaction-time,1,P,1,1,42,1423,0,1,392,321,H
2023-04-30T20:25:02Z,0ldaeete,serial-reaction-time,NA,R,1,1,43,1423,0,4,362,214,L
2023-04-30T20:25:02Z,0ldaeete,serial-reaction-time,1,R,1,0,43,1423,0,4,374,214,L
2023-04-30T20:25:03Z,0ldaeete,serial-reaction-time,1,P,1,1,44,1423,0,4,252,144,H
2023-04-30T20:25:03Z,0ldaeete,serial-reaction-time,NA,R,1,1,45,1423,0,2,79,442,H
2023-04-30T20:25:03Z,0ldaeete,serial-reaction-time,1,R,1,0,45,1423,0,2,366,442,H
2023-04-30T20:25:03Z,0ldaeete,serial-reaction-time,1,P,1,1,46,1423,0,2,249,422,H
2023-04-30T20:25:04Z,0ldaeete,serial-reaction-time,1,R,1,1,47,1423,0,3,355,223,H
2023-04-30T20:25:04Z,0ldaeete,serial-reaction-time,1,P,1,1,48,1423,0,3,168,233,H
2023-04-30T20:25:05Z,0ldaeete,serial-reaction-time,NA,R,1,1,49,1423,0,1,325,331,H
2023-04-30T20:25:05Z,0ldaeete,serial-reaction-time,1,R,1,0,49,1423,0,1,326,331,H
2023-04-30T20:25:05Z,0ldaeete,serial-reaction-time,1,P,1,1,50,1423,0,1,245,311,H
2023-04-30T20:25:06Z,0ldaeete,serial-reaction-time,1,R,1,1,51,1423,0,3,340,113,L
2023-04-30T20:25:06Z,0ldaeete,serial-reaction-time,1,P,1,1,52,1423,0,4,301,134,H
2023-04-30T20:25:06Z,0ldaeete,serial-reaction-time,NA,R,1,1,53,1423,0,1,303,341,H
2023-04-30T20:25:07Z,0ldaeete,serial-reaction-time,1,R,1,0,53,1423,0,1,411,341,H
2023-04-30T20:25:07Z,0ldaeete,serial-reaction-time,1,P,1,1,54,1423,0,2,317,412,H
2023-04-30T20:25:07Z,0ldaeete,serial-reaction-time,1,R,1,1,55,1423,0,4,288,124,H
2023-04-30T20:25:08Z,0ldaeete,serial-reaction-time,NA,P,1,1,56,1423,0,3,342,243,H
2023-04-30T20:25:08Z,0ldaeete,serial-reaction-time,1,P,1,0,56,1423,0,3,496,243,H
2023-04-30T20:25:09Z,0ldaeete,serial-reaction-time,1,R,1,1,57,1423,0,3,262,433,L
2023-04-30T20:25:09Z,0ldaeete,serial-reaction-time,1,P,1,1,58,1423,0,1,344,331,H
2023-04-30T20:25:09Z,0ldaeete,serial-reaction-time,1,R,1,1,59,1423,0,3,275,313,T
2023-04-30T20:25:10Z,0ldaeete,serial-reaction-time,1,P,1,1,60,1423,0,4,314,134,H
2023-04-30T20:25:10Z,0ldaeete,serial-reaction-time,NA,R,1,1,61,1423,0,3,300,343,T
2023-04-30T20:25:10Z,0ldaeete,serial-reaction-time,1,R,1,0,61,1423,0,3,453,343,T
2023-04-30T20:25:11Z,0ldaeete,serial-reaction-time,NA,P,1,1,62,1423,0,2,333,432,H
2023-04-30T20:25:11Z,0ldaeete,serial-reaction-time,1,P,1,0,62,1423,0,2,456,432,H
2023-04-30T20:25:11Z,0ldaeete,serial-reaction-time,NA,R,1,1,63,1423,0,4,110,324,L
2023-04-30T20:25:12Z,0ldaeete,serial-reaction-time,NA,R,1,0,63,1423,0,4,344,324,L
2023-04-30T20:25:12Z,0ldaeete,serial-reaction-time,1,R,1,0,63,1423,0,4,351,324,L
2023-04-30T20:25:12Z,0ldaeete,serial-reaction-time,NA,P,1,1,64,1423,0,3,244,243,H
2023-04-30T20:25:12Z,0ldaeete,serial-reaction-time,1,P,1,0,64,1423,0,3,338,243,H
2023-04-30T20:25:12Z,0ldaeete,serial-reaction-time,NA,R,1,1,65,1423,0,4,244,434,T
2023-04-30T20:25:13Z,0ldaeete,serial-reaction-time,1,R,1,0,65,1423,0,4,336,434,T
2023-04-30T20:25:13Z,0ldaeete,serial-reaction-time,NA,P,1,1,66,1423,0,1,329,341,H
2023-04-30T20:25:13Z,0ldaeete,serial-reaction-time,1,P,1,0,66,1423,0,1,417,341,H
2023-04-30T20:25:14Z,0ldaeete,serial-reaction-time,1,R,1,1,67,1423,0,1,243,411,L
2023-04-30T20:25:14Z,0ldaeete,serial-reaction-time,NA,P,1,1,68,1423,0,4,221,114,H
2023-04-30T20:25:14Z,0ldaeete,serial-reaction-time,NA,P,1,0,68,1423,0,4,335,114,H
2023-04-30T20:25:14Z,0ldaeete,serial-reaction-time,1,P,1,0,68,1423,0,4,387,114,H
2023-04-30T20:25:15Z,0ldaeete,serial-reaction-time,NA,R,1,1,69,1423,0,4,317,144,H
2023-04-30T20:25:15Z,0ldaeete,serial-reaction-time,1,R,1,0,69,1423,0,4,343,144,H
2023-04-30T20:25:15Z,0ldaeete,serial-reaction-time,NA,P,1,1,70,1423,0,2,168,442,H
2023-04-30T20:25:15Z,0ldaeete,serial-reaction-time,1,P,1,0,70,1423,0,2,385,442,H
2023-04-30T20:25:15Z,0ldaeete,serial-reaction-time,1,R,1,1,71,1423,0,2,182,422,H
2023-04-30T20:25:16Z,0ldaeete,serial-reaction-time,NA,P,1,1,72,1423,0,3,210,223,H
2023-04-30T20:25:16Z,0ldaeete,serial-reaction-time,1,P,1,0,72,1423,0,3,374,223,H
2023-04-30T20:25:16Z,0ldaeete,serial-reaction-time,NA,R,1,1,73,1423,0,4,147,234,L
2023-04-30T20:25:16Z,0ldaeete,serial-reaction-time,1,R,1,0,73,1423,0,4,297,234,L
2023-04-30T20:25:17Z,0ldaeete,serial-reaction-time,NA,P,1,1,74,1423,0,1,167,341,H
2023-04-30T20:25:17Z,0ldaeete,serial-reaction-time,1,P,1,0,74,1423,0,1,283,341,H
2023-04-30T20:25:17Z,0ldaeete,serial-reaction-time,NA,R,1,1,75,1423,0,2,155,412,H
2023-04-30T20:25:17Z,0ldaeete,serial-reaction-time,1,R,1,0,75,1423,0,2,356,412,H
2023-04-30T20:25:18Z,0ldaeete,serial-reaction-time,NA,P,1,1,76,1423,0,4,202,124,H
2023-04-30T20:25:18Z,0ldaeete,serial-reaction-time,1,P,1,0,76,1423,0,4,355,124,H
2023-04-30T20:25:18Z,0ldaeete,serial-reaction-time,NA,R,1,1,77,1423,0,3,270,243,H
2023-04-30T20:25:18Z,0ldaeete,serial-reaction-time,1,R,1,0,77,1423,0,3,533,243,H
2023-04-30T20:25:19Z,0ldaeete,serial-reaction-time,NA,P,1,1,78,1423,0,2,352,432,H
2023-04-30T20:25:19Z,0ldaeete,serial-reaction-time,1,P,1,0,78,1423,0,2,390,432,H
2023-04-30T20:25:19Z,0ldaeete,serial-reaction-time,1,R,1,1,79,1423,0,2,219,322,L
2023-04-30T20:25:20Z,0ldaeete,serial-reaction-time,1,P,1,1,80,1423,0,3,345,223,H
2023-04-30T20:25:25Z,0ldaeete,html-keyboard-response,NA,NA,NA,NA,NA,NA,NA,NA,NA,NA,NA
2023-04-30T20:25:41Z,0ldaeete,html-keyboard-response,NA,NA,NA,NA,NA,NA,NA,NA,NA,NA,NA
2023-04-30T20:25:42Z,0ldaeete,html-keyboard-response,NA,NA,NA,NA,NA,NA,NA,NA,NA,NA,NA
2023-04-30T20:25:45Z,0ldaeete,serial-reaction-time,1,R,2,1,1,1423,0,4,2159,4,X
2023-04-30T20:25:46Z,0ldaeete,serial-reaction-time,1,P,2,1,2,1423,0,1,453,41,X
2023-04-30T20:25:47Z,0ldaeete,serial-reaction-time,1,R,2,1,3,1423,0,2,530,412,H
2023-04-30T20:25:47Z,0ldaeete,serial-reaction-time,1,P,2,1,4,1423,0,4,608,124,H
2023-04-30T20:25:48Z,0ldaeete,serial-reaction-time,1,R,2,1,5,1423,0,4,548,244,L
2023-04-30T20:25:49Z,0ldaeete,serial-reaction-time,1,P,2,1,6,1423,0,2,490,442,H
2023-04-30T20:25:50Z,0ldaeete,serial-reaction-time,1,R,2,1,7,1423,0,3,954,423,L
2023-04-30T20:25:50Z,0ldaeete,serial-reaction-time,1,P,2,1,8,1423,0,3,351,233,H
2023-04-30T20:25:51Z,0ldaeete,serial-reaction-time,1,R,2,1,9,1423,0,3,335,333,R
2023-04-30T20:25:51Z,0ldaeete,serial-reaction-time,1,P,2,1,10,1423,0,1,422,331,H
2023-04-30T20:25:52Z,0ldaeete,serial-reaction-time,1,R,2,1,11,1423,0,2,542,312,L
2023-04-30T20:25:53Z,0ldaeete,serial-reaction-time,1,P,2,1,12,1423,0,4,375,124,H
2023-04-30T20:25:53Z,0ldaeete,serial-reaction-time,1,R,2,1,13,1423,0,3,396,243,H
2023-04-30T20:25:54Z,0ldaeete,serial-reaction-time,1,P,2,1,14,1423,0,2,812,432,H
2023-04-30T20:25:55Z,0ldaeete,serial-reaction-time,1,R,2,1,15,1423,0,3,621,323,T
2023-04-30T20:25:55Z,0ldaeete,serial-reaction-time,1,P,2,1,16,1423,0,3,385,233,H
2023-04-30T20:25:56Z,0ldaeete,serial-reaction-time,1,R,2,1,17,1423,0,1,407,331,H
2023-04-30T20:25:56Z,0ldaeete,serial-reaction-time,1,P,2,1,18,1423,0,1,382,311,H
2023-04-30T20:25:57Z,0ldaeete,serial-reaction-time,1,R,2,1,19,1423,0,2,392,112,L
2023-04-30T20:25:57Z,0ldaeete,serial-reaction-time,1,P,2,1,20,1423,0,4,358,124,H
2023-04-30T20:25:58Z,0ldaeete,serial-reaction-time,1,R,2,1,21,1423,0,3,467,243,H
2023-04-30T20:25:59Z,0ldaeete,serial-reaction-time,1,P,2,1,22,1423,0,2,630,432,H
2023-04-30T20:25:59Z,0ldaeete,serial-reaction-time,1,R,2,1,23,1423,0,4,387,324,L
2023-04-30T20:26:00Z,0ldaeete,serial-reaction-time,1,P,2,1,24,1423,0,3,407,243,H
2023-04-30T20:26:00Z,0ldaeete,serial-reaction-time,1,R,2,1,25,1423,0,3,379,433,L
2023-04-30T20:26:01Z,0ldaeete,serial-reaction-time,1,P,2,1,26,1423,0,1,396,331,H
2023-04-30T20:26:02Z,0ldaeete,serial-reaction-time,1,R,2,1,27,1423,0,4,372,314,L
2023-04-30T20:26:02Z,0ldaeete,serial-reaction-time,1,P,2,1,28,1423,0,4,333,144,H
2023-04-30T20:26:03Z,0ldaeete,serial-reaction-time,1,R,2,1,29,1423,0,2,426,442,H
2023-04-30T20:26:03Z,0ldaeete,serial-reaction-time,1,P,2,1,30,1423,0,2,321,422,H
2023-04-30T20:26:03Z,0ldaeete,serial-reaction-time,1,R,2,1,31,1423,0,2,336,222,R
2023-04-30T20:26:04Z,0ldaeete,serial-reaction-time,1,P,2,1,32,1423,0,3,484,223,H
2023-04-30T20:26:05Z,0ldaeete,serial-reaction-time,1,R,2,1,33,1423,0,4,409,234,L
2023-04-30T20:26:05Z,0ldaeete,serial-reaction-time,1,P,2,1,34,1423,0,1,411,341,H
2023-04-30T20:26:06Z,0ldaeete,serial-reaction-time,1,R,2,1,35,1423,0,3,407,413,L
2023-04-30T20:26:06Z,0ldaeete,serial-reaction-time,1,P,2,1,36,1423,0,4,326,134,H
2023-04-30T20:26:07Z,0ldaeete,serial-reaction-time,1,R,2,1,37,1423,0,3,364,343,T
2023-04-30T20:26:07Z,0ldaeete,serial-reaction-time,1,P,2,1,38,1423,0,2,515,432,H
2023-04-30T20:26:08Z,0ldaeete,serial-reaction-time,1,R,2,1,39,1423,0,1,458,321,H
2023-04-30T20:26:08Z,0ldaeete,serial-reaction-time,1,P,2,1,40,1423,0,3,347,213,H
2023-04-30T20:26:09Z,0ldaeete,serial-reaction-time,1,R,2,1,41,1423,0,2,417,132,L
2023-04-30T20:26:10Z,0ldaeete,serial-reaction-time,1,P,2,1,42,1423,0,1,398,321,H
2023-04-30T20:26:10Z,0ldaeete,serial-reaction-time,1,R,2,1,43,1423,0,3,343,213,H
2023-04-30T20:26:10Z,0ldaeete,serial-reaction-time,1,P,2,1,44,1423,0,4,330,134,H
2023-04-30T20:26:11Z,0ldaeete,serial-reaction-time,1,R,2,1,45,1423,0,1,419,341,H
2023-04-30T20:26:12Z,0ldaeete,serial-reaction-time,1,P,2,1,46,1423,0,2,668,412,H
2023-04-30T20:26:12Z,0ldaeete,serial-reaction-time,1,R,2,1,47,1423,0,2,374,122,L
2023-04-30T20:26:13Z,0ldaeete,serial-reaction-time,1,P,2,1,48,1423,0,3,549,223,H
2023-04-30T20:26:14Z,0ldaeete,serial-reaction-time,1,R,2,1,49,1423,0,4,413,234,L
2023-04-30T20:26:14Z,0ldaeete,serial-reaction-time,1,P,2,1,50,1423,0,1,389,341,H
2023-04-30T20:26:15Z,0ldaeete,serial-reaction-time,NA,R,2,1,51,1423,0,2,420,412,H
2023-04-30T20:26:15Z,0ldaeete,serial-reaction-time,1,R,2,0,51,1423,0,2,827,412,H
2023-04-30T20:26:16Z,0ldaeete,serial-reaction-time,1,P,2,1,52,1423,0,4,464,124,H
2023-04-30T20:26:16Z,0ldaeete,serial-reaction-time,1,R,2,1,53,1423,0,3,563,243,H
2023-04-30T20:26:17Z,0ldaeete,serial-reaction-time,1,P,2,1,54,1423,0,2,478,432,H
2023-04-30T20:26:18Z,0ldaeete,serial-reaction-time,1,R,2,1,55,1423,0,2,376,322,L
2023-04-30T20:26:19Z,0ldaeete,serial-reaction-time,1,P,2,1,56,1423,0,3,930,223,H
2023-04-30T20:26:19Z,0ldaeete,serial-reaction-time,NA,R,2,1,57,1423,0,4,206,234,L
2023-04-30T20:26:19Z,0ldaeete,serial-reaction-time,1,R,2,0,57,1423,0,4,538,234,L
2023-04-30T20:26:20Z,0ldaeete,serial-reaction-time,1,P,2,1,58,1423,0,1,343,341,H
2023-04-30T20:26:20Z,0ldaeete,serial-reaction-time,1,R,2,1,59,1423,0,1,368,411,L
2023-04-30T20:26:21Z,0ldaeete,serial-reaction-time,1,P,2,1,60,1423,0,4,484,114,H
2023-04-30T20:26:22Z,0ldaeete,serial-reaction-time,1,R,2,1,61,1423,0,1,524,141,T
2023-04-30T20:26:22Z,0ldaeete,serial-reaction-time,1,P,2,1,62,1423,0,2,367,412,H
2023-04-30T20:26:23Z,0ldaeete,serial-reaction-time,1,R,2,1,63,1423,0,1,374,121,T
2023-04-30T20:26:23Z,0ldaeete,serial-reaction-time,1,P,2,1,64,1423,0,3,460,213,H
2023-04-30T20:26:24Z,0ldaeete,serial-reaction-time,1,R,2,1,65,1423,0,4,371,134,H
2023-04-30T20:26:24Z,0ldaeete,serial-reaction-time,1,P,2,1,66,1423,0,1,359,341,H
2023-04-30T20:26:25Z,0ldaeete,serial-reaction-time,1,R,2,1,67,1423,0,4,343,414,T
2023-04-30T20:26:25Z,0ldaeete,serial-reaction-time,1,P,2,1,68,1423,0,4,346,144,H
2023-04-30T20:26:26Z,0ldaeete,serial-reaction-time,1,R,2,1,69,1423,0,3,468,443,L
2023-04-30T20:26:27Z,0ldaeete,serial-reaction-time,1,P,2,1,70,1423,0,2,687,432,H
2023-04-30T20:26:28Z,0ldaeete,serial-reaction-time,1,R,2,1,71,1423,0,1,775,321,H
2023-04-30T20:26:28Z,0ldaeete,serial-reaction-time,NA,P,2,1,72,1423,0,3,212,213,H
2023-04-30T20:26:28Z,0ldaeete,serial-reaction-time,1,P,2,0,72,1423,0,3,507,213,H
2023-04-30T20:26:29Z,0ldaeete,serial-reaction-time,1,R,2,1,73,1423,0,3,281,133,L
2023-04-30T20:26:29Z,0ldaeete,serial-reaction-time,1,P,2,1,74,1423,0,1,329,331,H
2023-04-30T20:26:30Z,0ldaeete,serial-reaction-time,1,R,2,1,75,1423,0,3,349,313,T
2023-04-30T20:26:30Z,0ldaeete,serial-reaction-time,1,P,2,1,76,1423,0,4,343,134,H
2023-04-30T20:26:31Z,0ldaeete,serial-reaction-time,1,R,2,1,77,1423,0,1,335,341,H
2023-04-30T20:26:31Z,0ldaeete,serial-reaction-time,1,P,2,1,78,1423,0,2,405,412,H
2023-04-30T20:26:32Z,0ldaeete,serial-reaction-time,1,R,2,1,79,1423,0,1,347,121,T
2023-04-30T20:26:32Z,0ldaeete,serial-reaction-time,1,P,2,1,80,1423,0,3,555,213,H
2023-04-30T20:26:37Z,0ldaeete,html-keyboard-response,NA,NA,NA,NA,NA,NA,NA,NA,NA,NA,NA
2023-04-30T20:26:46Z,0ldaeete,html-keyboard-response,NA,NA,NA,NA,NA,NA,NA,NA,NA,NA,NA
2023-04-30T20:26:50Z,0ldaeete,serial-reaction-time,1,R,3,1,1,1423,0,1,3043,1,X
2023-04-30T20:26:50Z,0ldaeete,serial-reaction-time,1,P,3,1,2,1423,0,1,274,11,X
2023-04-30T20:26:51Z,0ldaeete,serial-reaction-time,1,R,3,1,3,1423,0,4,410,114,H
2023-04-30T20:26:51Z,0ldaeete,serial-reaction-time,1,P,3,1,4,1423,0,4,276,144,H
2023-04-30T20:26:52Z,0ldaeete,serial-reaction-time,1,R,3,1,5,1423,0,4,277,444,R
2023-04-30T20:26:52Z,0ldaeete,serial-reaction-time,1,P,3,1,6,1423,0,2,460,442,H
2023-04-30T20:26:53Z,0ldaeete,serial-reaction-time,1,R,3,1,7,1423,0,3,367,423,L
2023-04-30T20:26:53Z,0ldaeete,serial-reaction-time,1,P,3,1,8,1423,0,3,390,233,H
2023-04-30T20:26:54Z,0ldaeete,serial-reaction-time,1,R,3,1,9,1423,0,2,504,332,L
2023-04-30T20:26:55Z,0ldaeete,serial-reaction-time,1,P,3,1,10,1423,0,1,396,321,H
2023-04-30T20:26:55Z,0ldaeete,serial-reaction-time,1,R,3,1,11,1423,0,2,363,212,T
2023-04-30T20:26:56Z,0ldaeete,serial-reaction-time,1,P,3,1,12,1423,0,4,409,124,H
2023-04-30T20:26:56Z,0ldaeete,serial-reaction-time,1,R,3,1,13,1423,0,2,384,242,T
2023-04-30T20:26:57Z,0ldaeete,serial-reaction-time,1,P,3,1,14,1423,0,2,350,422,H
2023-04-30T20:26:57Z,0ldaeete,serial-reaction-time,1,R,3,1,15,1423,0,2,371,222,R
2023-04-30T20:26:58Z,0ldaeete,serial-reaction-time,1,P,3,1,16,1423,0,3,466,223,H
