datetime,id,trial_type,correct,p_or_r,block,first_response,trial_number,sequence,is_practice,correct_pos,cumulative_rt,actual_triplet,triplet_type
2023-04-14T23:09:09Z,qt76109e,fullscreen,NA,NA,NA,NA,NA,NA,NA,NA,NA,NA,NA
2023-04-14T23:09:13Z,qt76109e,html-keyboard-response,NA,NA,NA,NA,NA,NA,NA,NA,NA,NA,NA
2023-04-14T23:09:15Z,qt76109e,serial-reaction-time,1,R,1,1,1,2341,0,3,428.69999999552965,3,X
2023-04-14T23:09:15Z,qt76109e,serial-reaction-time,1,P,1,1,2,2341,0,2,386.20000000298023,32,X
2023-04-14T23:09:15Z,qt76109e,serial-reaction-time,NA,R,1,1,3,2341,0,1,221.60000000149012,321,L
2023-04-14T23:09:16Z,qt76109e,serial-reaction-time,1,R,1,0,3,2341,0,1,358.30000000447035,321,L
2023-04-14T23:09:16Z,qt76109e,serial-reaction-time,1,P,1,1,4,2341,0,3,360.70000000298023,213,H
2023-04-14T23:09:17Z,qt76109e,serial-reaction-time,1,R,1,1,5,2341,0,4,271.90000000596046,134,L
2023-04-14T23:09:17Z,qt76109e,serial-reaction-time,1,P,1,1,6,2341,0,4,280.69999999552965,344,H
2023-04-14T23:09:17Z,qt76109e,serial-reaction-time,1,R,1,1,7,2341,0,2,341.79999999701977,442,L
2023-04-14T23:09:18Z,qt76109e,serial-reaction-time,NA,P,1,1,8,2341,0,1,303.70000000298023,421,H
2023-04-14T23:09:18Z,qt76109e,serial-reaction-time,1,P,1,0,8,2341,0,1,512.1000000014901,421,H
2023-04-14T23:09:19Z,qt76109e,serial-reaction-time,1,R,1,1,9,2341,0,4,343.20000000298023,214,L
2023-04-14T23:09:19Z,qt76109e,serial-reaction-time,1,P,1,1,10,2341,0,2,332.5,142,H
2023-04-14T23:09:19Z,qt76109e,serial-reaction-time,1,R,1,1,11,2341,0,2,285.6000000014901,422,L
2023-04-14T23:09:20Z,qt76109e,serial-reaction-time,1,P,1,1,12,2341,0,3,346.1000000014901,223,H
2023-04-14T23:09:20Z,qt76109e,serial-reaction-time,1,R,1,1,13,2341,0,1,383.6000000014901,231,L
2023-04-14T23:09:21Z,qt76109e,serial-reaction-time,1,P,1,1,14,2341,0,4,360.3999999985099,314,H
2023-04-14T23:09:21Z,qt76109e,serial-reaction-time,1,R,1,1,15,2341,0,4,320.79999999701977,144,L
2023-04-14T23:09:22Z,qt76109e,serial-reaction-time,1,P,1,1,16,2341,0,1,350,441,H
2023-04-14T23:09:22Z,qt76109e,serial-reaction-time,1,R,1,1,17,2341,0,1,278.3999999985099,411,H
2023-04-14T23:09:23Z,qt76109e,serial-reaction-time,1,P,1,1,18,2341,0,2,336.69999999552965,112,H
2023-04-14T23:09:23Z,qt76109e,serial-reaction-time,1,R,1,1,19,2341,0,3,371.80000000447035,123,L
2023-04-14T23:09:24Z,qt76109e,serial-reaction-time,1,P,1,1,20,2341,0,3,290.3999999985099,233,H
2023-04-14T23:09:24Z,qt76109e,serial-reaction-time,1,R,1,1,21,2341,0,1,360.29999999701977,331,L
2023-04-14T23:09:25Z,qt76109e,serial-reaction-time,1,P,1,1,22,2341,0,4,406.90000000596046,314,H
2023-04-14T23:09:25Z,qt76109e,serial-reaction-time,1,R,1,1,23,2341,0,3,380.70000000298023,143,L
2023-04-14T23:09:26Z,qt76109e,serial-reaction-time,NA,P,1,1,24,2341,0,1,349.79999999701977,431,H
2023-04-14T23:09:26Z,qt76109e,serial-reaction-time,1,P,1,0,24,2341,0,1,623.5999999940395,431,H
2023-04-14T23:09:27Z,qt76109e,serial-reaction-time,1,R,1,1,25,2341,0,4,443.6000000014901,314,H
2023-04-14T23:09:27Z,qt76109e,serial-reaction-time,1,P,1,1,26,2341,0,2,473.3999999985099,142,H
2023-04-14T23:09:28Z,qt76109e,serial-reaction-time,1,R,1,1,27,2341,0,1,445.3999999985099,421,H
2023-04-14T23:09:28Z,qt76109e,serial-reaction-time,1,P,1,1,28,2341,0,3,387.5,213,H
2023-04-14T23:09:29Z,qt76109e,serial-reaction-time,1,R,1,1,29,2341,0,3,256.1000000014901,133,L
2023-04-14T23:09:29Z,qt76109e,serial-reaction-time,1,P,1,1,30,2341,0,4,304.1000000014901,334,H
2023-04-14T23:09:30Z,qt76109e,serial-reaction-time,1,R,1,1,31,2341,0,4,305.1000000014901,344,H
2023-04-14T23:09:30Z,qt76109e,serial-reaction-time,1,P,1,1,32,2341,0,1,434,441,H
2023-04-14T23:09:31Z,qt76109e,serial-reaction-time,1,R,1,1,33,2341,0,3,388.20000000298023,413,L
2023-04-14T23:09:31Z,qt76109e,serial-reaction-time,1,P,1,1,34,2341,0,2,410.5,132,H
2023-04-14T23:09:32Z,qt76109e,serial-reaction-time,1,R,1,1,35,2341,0,2,346,322,L
2023-04-14T23:09:32Z,qt76109e,serial-reaction-time,1,P,1,1,36,2341,0,3,354.79999999701977,223,H
2023-04-14T23:09:33Z,qt76109e,serial-reaction-time,1,R,1,1,37,2341,0,1,379.79999999701977,231,L
2023-04-14T23:09:33Z,qt76109e,serial-reaction-time,1,P,1,1,38,2341,0,4,311.29999999701977,314,H
2023-04-14T23:09:34Z,qt76109e,serial-reaction-time,NA,R,1,1,39,2341,0,1,225.80000000447035,141,T
2023-04-14T23:09:34Z,qt76109e,serial-reaction-time,1,R,1,0,39,2341,0,1,530.2000000104308,141,T
2023-04-14T23:09:35Z,qt76109e,serial-reaction-time,1,P,1,1,40,2341,0,1,394.70000000298023,411,H
2023-04-14T23:09:35Z,qt76109e,serial-reaction-time,1,R,1,1,41,2341,0,2,346,112,H
2023-04-14T23:09:35Z,qt76109e,serial-reaction-time,1,P,1,1,42,2341,0,2,337.3999999985099,122,H
2023-04-14T23:09:36Z,qt76109e,serial-reaction-time,1,R,1,1,43,2341,0,3,361.6000000014901,223,H
2023-04-14T23:09:36Z,qt76109e,serial-reaction-time,1,P,1,1,44,2341,0,3,258.8999999985099,233,H
2023-04-14T23:09:37Z,qt76109e,serial-reaction-time,1,R,1,1,45,2341,0,4,299.70000000298023,334,H
2023-04-14T23:09:37Z,qt76109e,serial-reaction-time,1,P,1,1,46,2341,0,4,296.19999999552965,344,H
2023-04-14T23:09:38Z,qt76109e,serial-reaction-time,1,R,1,1,47,2341,0,3,441.5,443,L
2023-04-14T23:09:38Z,qt76109e,serial-reaction-time,1,P,1,1,48,2341,0,1,381.40000000596046,431,H
2023-04-14T23:09:39Z,qt76109e,serial-reaction-time,1,R,1,1,49,2341,0,1,377,311,L
2023-04-14T23:09:39Z,qt76109e,serial-reaction-time,1,P,1,1,50,2341,0,2,516.2999999970198,112,H
2023-04-14T23:09:40Z,qt76109e,serial-reaction-time,1,R,1,1,51,2341,0,2,416.29999999701977,122,H
2023-04-14T23:09:40Z,qt76109e,serial-reaction-time,1,P,1,1,52,2341,0,3,329.6000000014901,223,H
2023-04-14T23:09:41Z,qt76109e,serial-reaction-time,1,R,1,1,53,2341,0,3,257,233,H
2023-04-14T23:09:41Z,qt76109e,serial-reaction-time,1,P,1,1,54,2341,0,4,238.89999999850988,334,H
2023-04-14T23:09:42Z,qt76109e,serial-reaction-time,1,R,1,1,55,2341,0,1,355.20000000298023,341,L
2023-04-14T23:09:42Z,qt76109e,serial-reaction-time,1,P,1,1,56,2341,0,1,347,411,H
2023-04-14T23:09:43Z,qt76109e,serial-reaction-time,1,R,1,1,57,2341,0,3,380.79999999701977,113,L
2023-04-14T23:09:43Z,qt76109e,serial-reaction-time,1,P,1,1,58,2341,0,2,429.29999999701977,132,H
2023-04-14T23:09:44Z,qt76109e,serial-reaction-time,1,R,1,1,59,2341,0,2,344,322,L
2023-04-14T23:09:44Z,qt76109e,serial-reaction-time,1,P,1,1,60,2341,0,3,358.30000000447035,223,H
2023-04-14T23:09:45Z,qt76109e,serial-reaction-time,1,R,1,1,61,2341,0,2,354.79999999701977,232,T
2023-04-14T23:09:45Z,qt76109e,serial-reaction-time,1,P,1,1,62,2341,0,4,392.3999999985099,324,H
2023-04-14T23:09:46Z,qt76109e,serial-reaction-time,NA,R,1,1,63,2341,0,2,432.29999999701977,242,T
2023-04-14T23:09:46Z,qt76109e,serial-reaction-time,1,R,1,0,63,2341,0,2,821.7999999970198,242,T
2023-04-14T23:09:47Z,qt76109e,serial-reaction-time,1,P,1,1,64,2341,0,1,438.40000000596046,421,H
2023-04-14T23:09:47Z,qt76109e,serial-reaction-time,1,R,1,1,65,2341,0,4,413.20000000298023,214,L
2023-04-14T23:09:48Z,qt76109e,serial-reaction-time,1,P,1,1,66,2341,0,2,413.09999999403954,142,H
2023-04-14T23:09:48Z,qt76109e,serial-reaction-time,1,R,1,1,67,2341,0,4,425.1000000014901,424,T
2023-04-14T23:09:49Z,qt76109e,serial-reaction-time,1,P,1,1,68,2341,0,3,442.6000000014901,243,H
2023-04-14T23:09:50Z,qt76109e,serial-reaction-time,1,R,1,1,69,2341,0,1,523.2999999970198,431,H
2023-04-14T23:09:50Z,qt76109e,serial-reaction-time,NA,P,1,1,70,2341,0,4,379.20000000298023,314,H
2023-04-14T23:09:50Z,qt76109e,serial-reaction-time,1,P,1,0,70,2341,0,4,617.8999999985099,314,H
2023-04-14T23:09:51Z,qt76109e,serial-reaction-time,1,R,1,1,71,2341,0,3,430.79999999701977,143,L
2023-04-14T23:09:52Z,qt76109e,serial-reaction-time,1,P,1,1,72,2341,0,1,455.20000000298023,431,H
2023-04-14T23:09:52Z,qt76109e,serial-reaction-time,1,R,1,1,73,2341,0,3,315.5,313,T
2023-04-14T23:09:53Z,qt76109e,serial-reaction-time,1,P,1,1,74,2341,0,2,388.40000000596046,132,H
2023-04-14T23:09:53Z,qt76109e,serial-reaction-time,1,R,1,1,75,2341,0,4,383,324,H
2023-04-14T23:09:54Z,qt76109e,serial-reaction-time,1,P,1,1,76,2341,0,3,356.5,243,H
2023-04-14T23:09:54Z,qt76109e,serial-reaction-time,1,R,1,1,77,2341,0,1,433.70000000298023,431,H
2023-04-14T23:09:55Z,qt76109e,serial-reaction-time,NA,P,1,1,78,2341,0,4,330,314,H
2023-04-14T23:09:55Z,qt76109e,serial-reaction-time,1,P,1,0,78,2341,0,4,545.3000000044703,314,H
2023-04-14T23:09:55Z,qt76109e,serial-reaction-time,1,R,1,1,79,2341,0,3,438.1000000014901,143,L
2023-04-14T23:09:56Z,qt76109e,serial-reaction-time,1,P,1,1,80,2341,0,1,368.80000000447035,431,H
2023-04-14T23:10:01Z,qt76109e,html-keyboard-response,NA,NA,NA,NA,NA,NA,NA,NA,NA,NA,NA
2023-04-14T23:10:02Z,qt76109e,html-keyboard-response,NA,NA,NA,NA,NA,NA,NA,NA,NA,NA,NA
2023-04-14T23:10:03Z,qt76109e,serial-reaction-time,1,R,2,1,1,2341,0,3,423.30000000447035,3,X
2023-04-14T23:10:04Z,qt76109e,serial-reaction-time,1,P,2,1,2,2341,0,2,415.30000000447035,32,X
2023-04-14T23:10:04Z,qt76109e,serial-reaction-time,1,R,2,1,3,2341,0,3,436.29999999701977,323,T
2023-04-14T23:10:05Z,qt76109e,serial-reaction-time,1,P,2,1,4,2341,0,3,425.20000000298023,233,H
2023-04-14T23:10:05Z,qt76109e,serial-reaction-time,1,R,2,1,5,2341,0,4,424.79999999701977,334,H
2023-04-14T23:10:06Z,qt76109e,serial-reaction-time,1,P,2,1,6,2341,0,4,413.79999999701977,344,H
2023-04-14T23:10:06Z,qt76109e,serial-reaction-time,1,R,2,1,7,2341,0,1,470.20000000298023,441,H
2023-04-14T23:10:07Z,qt76109e,serial-reaction-time,1,P,2,1,8,2341,0,1,450.6000000014901,411,H
2023-04-14T23:10:07Z,qt76109e,serial-reaction-time,NA,R,2,1,9,2341,0,2,338.8999999985099,112,H
2023-04-14T23:10:08Z,qt76109e,serial-reaction-time,1,R,2,0,9,2341,0,2,572.5,112,H
2023-04-14T23:10:08Z,qt76109e,serial-reaction-time,1,P,2,1,10,2341,0,2,446.69999999552965,122,H
2023-04-14T23:10:09Z,qt76109e,serial-reaction-time,1,R,2,1,11,2341,0,1,502.1000000014901,221,L
2023-04-14T23:10:09Z,qt76109e,serial-reaction-time,1,P,2,1,12,2341,0,3,368,213,H
2023-04-14T23:10:10Z,qt76109e,serial-reaction-time,1,R,2,1,13,2341,0,3,381.6000000014901,133,L
2023-04-14T23:10:10Z,qt76109e,serial-reaction-time,1,P,2,1,14,2341,0,4,371.6000000014901,334,H
2023-04-14T23:10:11Z,qt76109e,serial-reaction-time,NA,R,2,1,15,2341,0,2,197.89999999850988,342,L
2023-04-14T23:10:11Z,qt76109e,serial-reaction-time,1,R,2,0,15,2341,0,2,450.29999999701977,342,L
2023-04-14T23:10:12Z,qt76109e,serial-reaction-time,1,P,2,1,16,2341,0,1,449.5,421,H
2023-04-14T23:10:12Z,qt76109e,serial-reaction-time,1,R,2,1,17,2341,0,1,566.7999999970198,211,L
2023-04-14T23:10:13Z,qt76109e,serial-reaction-time,1,P,2,1,18,2341,0,2,417,112,H
2023-04-14T23:10:13Z,qt76109e,serial-reaction-time,NA,R,2,1,19,2341,0,1,357,121,T
2023-04-14T23:10:14Z,qt76109e,serial-reaction-time,1,R,2,0,19,2341,0,1,562.3999999985099,121,T
2023-04-14T23:10:14Z,qt76109e,serial-reaction-time,1,P,2,1,20,2341,0,3,401.5,213,H
2023-04-14T23:10:15Z,qt76109e,serial-reaction-time,1,R,2,1,21,2341,0,2,417.3999999985099,132,H
2023-04-14T23:10:15Z,qt76109e,serial-reaction-time,1,P,2,1,22,2341,0,4,386.5,324,H
2023-04-14T23:10:16Z,qt76109e,serial-reaction-time,1,R,2,1,23,2341,0,2,382.20000000298023,242,T
2023-04-14T23:10:16Z,qt76109e,serial-reaction-time,NA,P,2,1,24,2341,0,1,373.29999999701977,421,H
2023-04-14T23:10:16Z,qt76109e,serial-reaction-time,1,P,2,0,24,2341,0,1,619.6999999955297,421,H
2023-04-14T23:10:17Z,qt76109e,serial-reaction-time,1,R,2,1,25,2341,0,4,440.5,214,L
2023-04-14T23:10:18Z,qt76109e,serial-reaction-time,1,P,2,1,26,2341,0,2,352.8999999985099,142,H
2023-04-14T23:10:18Z,qt76109e,serial-reaction-time,1,R,2,1,27,2341,0,3,328.80000000447035,423,L
2023-04-14T23:10:18Z,qt76109e,serial-reaction-time,1,P,2,1,28,2341,0,3,318.3999999985099,233,H
2023-04-14T23:10:19Z,qt76109e,serial-reaction-time,1,R,2,1,29,2341,0,1,314.19999999552965,331,L
2023-04-14T23:10:19Z,qt76109e,serial-reaction-time,1,P,2,1,30,2341,0,4,318.1000000014901,314,H
2023-04-14T23:10:20Z,qt76109e,serial-reaction-time,1,R,2,1,31,2341,0,2,323.1000000014901,142,H
2023-04-14T23:10:20Z,qt76109e,serial-reaction-time,1,P,2,1,32,2341,0,1,419.8999999985099,421,H
2023-04-14T23:10:21Z,qt76109e,serial-reaction-time,1,R,2,1,33,2341,0,3,377.70000000298023,213,H
2023-04-14T23:10:21Z,qt76109e,serial-reaction-time,1,P,2,1,34,2341,0,2,494.1000000014901,132,H
2023-04-14T23:10:22Z,qt76109e,serial-reaction-time,1,R,2,1,35,2341,0,2,613.0999999940395,322,L
2023-04-14T23:10:23Z,qt76109e,serial-reaction-time,1,P,2,1,36,2341,0,3,408.29999999701977,223,H
2023-04-14T23:10:23Z,qt76109e,serial-reaction-time,1,R,2,1,37,2341,0,3,313.8999999985099,233,H
2023-04-14T23:10:24Z,qt76109e,serial-reaction-time,1,P,2,1,38,2341,0,4,271.20000000298023,334,H
2023-04-14T23:10:24Z,qt76109e,serial-reaction-time,1,R,2,1,39,2341,0,4,262.6000000014901,344,H
2023-04-14T23:10:24Z,qt76109e,serial-reaction-time,1,P,2,1,40,2341,0,1,313.8999999985099,441,H
2023-04-14T23:10:25Z,qt76109e,serial-reaction-time,1,R,2,1,41,2341,0,1,229.10000000149012,411,H
2023-04-14T23:10:25Z,qt76109e,serial-reaction-time,1,P,2,1,42,2341,0,2,284.29999999701977,112,H
2023-04-14T23:10:26Z,qt76109e,serial-reaction-time,NA,R,2,1,43,2341,0,4,208.80000000447035,124,L
2023-04-14T23:10:26Z,qt76109e,serial-reaction-time,1,R,2,0,43,2341,0,4,432.80000000447035,124,L
2023-04-14T23:10:26Z,qt76109e,serial-reaction-time,NA,P,2,1,44,2341,0,3,334.1000000014901,243,H
2023-04-14T23:10:26Z,qt76109e,serial-reaction-time,1,P,2,0,44,2341,0,3,496.70000000298023,243,H
2023-04-14T23:10:27Z,qt76109e,serial-reaction-time,1,R,2,1,45,2341,0,3,317.59999999403954,433,L
2023-04-14T23:10:27Z,qt76109e,serial-reaction-time,NA,P,2,1,46,2341,0,4,367.30000000447035,334,H
2023-04-14T23:10:28Z,qt76109e,serial-reaction-time,1,P,2,0,46,2341,0,4,548.8000000044703,334,H
2023-04-14T23:10:28Z,qt76109e,serial-reaction-time,1,R,2,1,47,2341,0,1,503,341,L
2023-04-14T23:10:29Z,qt76109e,serial-reaction-time,1,P,2,1,48,2341,0,1,271.8999999985099,411,H
2023-04-14T23:10:29Z,qt76109e,serial-reaction-time,1,R,2,1,49,2341,0,2,381.79999999701977,112,H
2023-04-14T23:10:30Z,qt76109e,serial-reaction-time,1,P,2,1,50,2341,0,2,297,122,H
2023-04-14T23:10:30Z,qt76109e,serial-reaction-time,1,R,2,1,51,2341,0,4,357.6000000014901,224,L
2023-04-14T23:10:31Z,qt76109e,serial-reaction-time,NA,P,2,1,52,2341,0,3,379.20000000298023,243,H
2023-04-14T23:10:31Z,qt76109e,serial-reaction-time,1,P,2,0,52,2341,0,3,612.2000000029802,243,H
2023-04-14T23:10:31Z,qt76109e,serial-reaction-time,1,R,2,1,53,2341,0,1,447.20000000298023,431,H
2023-04-14T23:10:32Z,qt76109e,serial-reaction-time,1,P,2,1,54,2341,0,4,406.90000000596046,314,H
2023-04-14T23:10:32Z,qt76109e,serial-reaction-time,1,R,2,1,55,2341,0,4,360.90000000596046,144,L
2023-04-14T23:10:33Z,qt76109e,serial-reaction-time,1,P,2,1,56,2341,0,1,324.6000000014901,441,H
2023-04-14T23:10:33Z,qt76109e,serial-reaction-time,NA,R,2,1,57,2341,0,3,260.40000000596046,413,L
2023-04-14T23:10:33Z,qt76109e,serial-reaction-time,1,R,2,0,57,2341,0,3,394.20000000298023,413,L
2023-04-14T23:10:34Z,qt76109e,serial-reaction-time,NA,P,2,1,58,2341,0,2,364.1000000014901,132,H
2023-04-14T23:10:34Z,qt76109e,serial-reaction-time,1,P,2,0,58,2341,0,2,413.70000000298023,132,H
2023-04-14T23:10:34Z,qt76109e,serial-reaction-time,NA,R,2,1,59,2341,0,1,154.29999999701977,321,L
2023-04-14T23:10:35Z,qt76109e,serial-reaction-time,1,R,2,0,59,2341,0,1,469,321,L
2023-04-14T23:10:35Z,qt76109e,serial-reaction-time,NA,P,2,1,60,2341,0,3,319.1000000014901,213,H
2023-04-14T23:10:35Z,qt76109e,serial-reaction-time,1,P,2,0,60,2341,0,3,655.3999999985099,213,H
2023-04-14T23:10:36Z,qt76109e,serial-reaction-time,NA,R,2,1,61,2341,0,2,323.6000000014901,132,H
2023-04-14T23:10:36Z,qt76109e,serial-reaction-time,1,R,2,0,61,2341,0,2,445.0000000074506,132,H
2023-04-14T23:10:37Z,qt76109e,serial-reaction-time,1,P,2,1,62,2341,0,4,421.8999999985099,324,H
2023-04-14T23:10:37Z,qt76109e,serial-reaction-time,NA,R,2,1,63,2341,0,1,257.20000000298023,241,L
2023-04-14T23:10:37Z,qt76109e,serial-reaction-time,1,R,2,0,63,2341,0,1,474.29999999701977,241,L
2023-04-14T23:10:38Z,qt76109e,serial-reaction-time,1,P,2,1,64,2341,0,1,332.20000000298023,411,H
2023-04-14T23:10:38Z,qt76109e,serial-reaction-time,1,R,2,1,65,2341,0,4,274.40000000596046,114,L
2023-04-14T23:10:39Z,qt76109e,serial-reaction-time,1,P,2,1,66,2341,0,2,380.30000000447035,142,H
2023-04-14T23:10:39Z,qt76109e,serial-reaction-time,1,R,2,1,67,2341,0,2,282.80000000447035,422,L
2023-04-14T23:10:39Z,qt76109e,serial-reaction-time,1,P,2,1,68,2341,0,3,314.5,223,H
2023-04-14T23:10:40Z,qt76109e,serial-reaction-time,NA,R,2,1,69,2341,0,1,403.70000000298023,231,L
2023-04-14T23:10:40Z,qt76109e,serial-reaction-time,1,R,2,0,69,2341,0,1,475.1000000014901,231,L
2023-04-14T23:10:40Z,qt76109e,serial-reaction-time,NA,P,2,1,70,2341,0,4,236,314,H
2023-04-14T23:10:41Z,qt76109e,serial-reaction-time,1,P,2,0,70,2341,0,4,466.30000000447035,314,H
2023-04-14T23:10:41Z,qt76109e,serial-reaction-time,NA,R,2,1,71,2341,0,2,236.4000000059605,142,H
2023-04-14T23:10:41Z,qt76109e,serial-reaction-time,1,R,2,0,71,2341,0,2,475.5000000074506,142,H
2023-04-14T23:10:42Z,qt76109e,serial-reaction-time,1,P,2,1,72,2341,0,1,522.5,421,H
2023-04-14T23:10:42Z,qt76109e,serial-reaction-time,NA,R,2,1,73,2341,0,2,269.8999999985099,212,T
2023-04-14T23:10:43Z,qt76109e,serial-reaction-time,1,R,2,0,73,2341,0,2,563.7000000029802,212,T
2023-04-14T23:10:43Z,qt76109e,serial-reaction-time,1,P,2,1,74,2341,0,2,356.5,122,H
2023-04-14T23:10:44Z,qt76109e,serial-reaction-time,1,R,2,1,75,2341,0,1,455.3999999985099,221,L
2023-04-14T23:10:44Z,qt76109e,serial-reaction-time,1,P,2,1,76,2341,0,3,419.19999999552965,213,H
2023-04-14T23:10:45Z,qt76109e,serial-reaction-time,1,R,2,1,77,2341,0,3,286.3999999985099,133,L
2023-04-14T23:10:45Z,qt76109e,serial-reaction-time,1,P,2,1,78,2341,0,4,364.8999999985099,334,H
2023-04-14T23:10:46Z,qt76109e,serial-reaction-time,1,R,2,1,79,2341,0,1,445.3999999985099,341,L
2023-04-14T23:10:46Z,qt76109e,serial-reaction-time,1,P,2,1,80,2341,0,1,478.29999999701977,411,H
2023-04-14T23:10:51Z,qt76109e,html-keyboard-response,NA,NA,NA,NA,NA,NA,NA,NA,NA,NA,NA
2023-04-14T23:10:52Z,qt76109e,html-keyboard-response,NA,NA,NA,NA,NA,NA,NA,NA,NA,NA,NA
2023-04-14T23:10:53Z,qt76109e,serial-reaction-time,1,R,3,1,1,2341,0,3,443.30000000447035,3,X
2023-04-14T23:10:54Z,qt76109e,serial-reaction-time,NA,P,3,1,2,2341,0,2,226.20000000298023,32,X
2023-04-14T23:10:54Z,qt76109e,serial-reaction-time,1,P,3,0,2,2341,0,2,476.3999999985099,32,X
2023-04-14T23:10:55Z,qt76109e,serial-reaction-time,1,R,3,1,3,2341,0,3,448.1000000014901,323,T
2023-04-14T23:10:55Z,qt76109e,serial-reaction-time,1,P,3,1,4,2341,0,3,507.70000000298023,233,H
2023-04-14T23:10:59Z,qt76109e,serial-reaction-time,1,R,3,1,5,2341,0,2,3652.8000000044703,332,L
2023-04-14T23:10:59Z,qt76109e,serial-reaction-time,NA,P,3,1,6,2341,0,4,226,324,H
2023-04-14T23:11:00Z,qt76109e,serial-reaction-time,1,P,3,0,6,2341,0,4,471.5,324,H
2023-04-14T23:11:00Z,qt76109e,serial-reaction-time,1,R,3,1,7,2341,0,3,347.19999999552965,243,H
2023-04-14T23:11:01Z,qt76109e,serial-reaction-time,1,P,3,1,8,2341,0,1,344.20000000298023,431,H
2023-04-14T23:11:01Z,qt76109e,serial-reaction-time,1,R,3,1,9,2341,0,1,326.79999999701977,311,L
2023-04-14T23:11:02Z,qt76109e,serial-reaction-time,1,P,3,1,10,2341,0,2,376.5,112,H
2023-04-14T23:11:02Z,qt76109e,serial-reaction-time,1,R,3,1,11,2341,0,1,306.6000000014901,121,T
2023-04-14T23:11:03Z,qt76109e,serial-reaction-time,1,P,3,1,12,2341,0,3,320.20000000298023,213,H
2023-04-14T23:11:03Z,qt76109e,serial-reaction-time,NA,R,3,1,13,2341,0,2,392.40000000596046,132,H
2023-04-14T23:11:03Z,qt76109e,serial-reaction-time,1,R,3,0,13,2341,0,2,493.0000000074506,132,H
2023-04-14T23:11:04Z,qt76109e,serial-reaction-time,1,P,3,1,14,2341,0,4,418.3999999985099,324,H
2023-04-14T23:11:04Z,qt76109e,serial-reaction-time,1,R,3,1,15,2341,0,1,392.5,241,L
2023-04-14T23:11:05Z,qt76109e,serial-reaction-time,1,P,3,1,16,2341,0,1,372.5,411,H
2023-04-14T23:11:05Z,qt76109e,serial-reaction-time,1,R,3,1,17,2341,0,3,501.19999999552965,113,L
2023-04-14T23:11:06Z,qt76109e,serial-reaction-time,1,P,3,1,18,2341,0,2,420.29999999701977,132,H
2023-04-14T23:11:07Z,qt76109e,serial-reaction-time,1,R,3,1,19,2341,0,4,485.5,324,H
2023-04-14T23:11:07Z,qt76109e,serial-reaction-time,NA,P,3,1,20,2341,0,3,307.8999999985099,243,H
2023-04-14T23:11:07Z,qt76109e,serial-reaction-time,1,P,3,0,20,2341,0,3,512.5,243,H
2023-04-14T23:11:08Z,qt76109e,serial-reaction-time,1,R,3,1,21,2341,0,3,411.6000000014901,433,L
2023-04-14T23:11:08Z,qt76109e,serial-reaction-time,1,P,3,1,22,2341,0,4,383.90000000596046,334,H
2023-04-14T23:11:09Z,qt76109e,serial-reaction-time,1,R,3,1,23,2341,0,1,511,341,L
2023-04-14T23:11:09Z,qt76109e,serial-reaction-time,1,P,3,1,24,2341,0,1,267.30000000447035,411,H
2023-04-14T23:11:10Z,qt76109e,serial-reaction-time,1,R,3,1,25,2341,0,3,367,113,L
2023-04-14T23:11:11Z,qt76109e,serial-reaction-time,1,P,3,1,26,2341,0,2,898.8000000044703,132,H
2023-04-14T23:11:12Z,qt76109e,serial-reaction-time,1,R,3,1,27,2341,0,1,542.7999999970198,321,L
2023-04-14T23:11:12Z,qt76109e,serial-reaction-time,1,P,3,1,28,2341,0,3,714.1000000014901,213,H
2023-04-14T23:11:13Z,qt76109e,serial-reaction-time,1,R,3,1,29,2341,0,1,521,131,T
2023-04-14T23:11:14Z,qt76109e,serial-reaction-time,1,P,3,1,30,2341,0,4,494.70000000298023,314,H
2023-04-14T23:11:14Z,qt76109e,serial-reaction-time,1,R,3,1,31,2341,0,2,377.69999999552965,142,H
2023-04-14T23:11:15Z,qt76109e,serial-reaction-time,NA,P,3,1,32,2341,0,1,352.8999999985099,421,H
2023-04-14T23:11:15Z,qt76109e,serial-reaction-time,1,P,3,0,32,2341,0,1,489.19999999552965,421,H
2023-04-14T23:11:15Z,qt76109e,serial-reaction-time,1,R,3,1,33,2341,0,2,472.79999999701977,212,T
2023-04-14T23:11:17Z,qt76109e,serial-reaction-time,1,P,3,1,34,2341,0,2,1445.60000000149,122,H
2023-04-14T23:11:17Z,qt76109e,serial-reaction-time,NA,R,3,1,35,2341,0,4,340.29999999701977,224,L
2023-04-14T23:11:17Z,qt76109e,serial-reaction-time,1,R,3,0,35,2341,0,4,346.59999999403954,224,L
2023-04-14T23:11:18Z,qt76109e,serial-reaction-time,1,P,3,1,36,2341,0,3,377.3999999985099,243,H
2023-04-14T23:11:18Z,qt76109e,serial-reaction-time,1,R,3,1,37,2341,0,1,326.6000000014901,431,H
2023-04-14T23:11:19Z,qt76109e,serial-reaction-time,1,P,3,1,38,2341,0,4,446.5,314,H
2023-04-14T23:11:20Z,qt76109e,serial-reaction-time,1,R,3,1,39,2341,0,1,744.5,141,T
2023-04-14T23:11:21Z,qt76109e,serial-reaction-time,NA,P,3,1,40,2341,0,1,818.8999999985099,411,H
2023-04-14T23:11:21Z,qt76109e,serial-reaction-time,1,P,3,0,40,2341,0,1,926.39999999851,411,H
2023-04-14T23:11:21Z,qt76109e,serial-reaction-time,NA,R,3,1,41,2341,0,4,366.1000000014901,114,L
2023-04-14T23:11:22Z,qt76109e,serial-reaction-time,1,R,3,0,41,2341,0,4,403,114,L
2023-04-14T23:11:22Z,qt76109e,serial-reaction-time,NA,P,3,1,42,2341,0,2,195.89999999850988,142,H
2023-04-14T23:11:22Z,qt76109e,serial-reaction-time,1,P,3,0,42,2341,0,2,354,142,H
2023-04-14T23:11:23Z,qt76109e,serial-reaction-time,1,R,3,1,43,2341,0,4,354.30000000447035,424,T
2023-04-14T23:11:23Z,qt76109e,serial-reaction-time,1,P,3,1,44,2341,0,3,474.70000000298023,243,H
2023-04-14T23:11:24Z,qt76109e,serial-reaction-time,1,R,3,1,45,2341,0,3,557.2000000029802,433,L
2023-04-14T23:11:24Z,qt76109e,serial-reaction-time,1,P,3,1,46,2341,0,4,386.5,334,H
2023-04-14T23:11:25Z,qt76109e,serial-reaction-time,1,R,3,1,47,2341,0,4,523.9000000059605,344,H
2023-04-14T23:11:25Z,qt76109e,serial-reaction-time,1,P,3,1,48,2341,0,1,361.70000000298023,441,H
2023-04-14T23:11:26Z,qt76109e,serial-reaction-time,1,R,3,1,49,2341,0,4,464.80000000447035,414,T
2023-04-14T23:11:27Z,qt76109e,serial-reaction-time,1,P,3,1,50,2341,0,2,547.2999999970198,142,H
2023-04-14T23:11:27Z,qt76109e,serial-reaction-time,1,R,3,1,51,2341,0,3,502.5,423,L
2023-04-14T23:11:28Z,qt76109e,serial-reaction-time,1,P,3,1,52,2341,0,3,377.69999999552965,233,H
2023-04-14T23:11:28Z,qt76109e,serial-reaction-time,1,R,3,1,53,2341,0,4,444.19999999552965,334,H
2023-04-14T23:11:29Z,qt76109e,serial-reaction-time,1,P,3,1,54,2341,0,4,601.5,344,H
2023-04-14T23:11:30Z,qt76109e,serial-reaction-time,1,R,3,1,55,2341,0,1,470,441,H
2023-04-14T23:11:30Z,qt76109e,serial-reaction-time,1,P,3,1,56,2341,0,1,515.3999999985099,411,H
2023-04-14T23:11:31Z,qt76109e,serial-reaction-time,1,R,3,1,57,2341,0,3,366,113,L
2023-04-14T23:11:32Z,qt76109e,serial-reaction-time,1,P,3,1,58,2341,0,2,477.79999999701977,132,H
2023-04-14T23:11:32Z,qt76109e,serial-reaction-time,1,R,3,1,59,2341,0,4,602.8000000044703,324,H
2023-04-14T23:11:33Z,qt76109e,serial-reaction-time,1,P,3,1,60,2341,0,3,519.1000000014901,243,H
2023-04-14T23:11:34Z,qt76109e,serial-reaction-time,1,R,3,1,61,2341,0,4,385.5,434,T
2023-04-14T23:11:34Z,qt76109e,serial-reaction-time,1,P,3,1,62,2341,0,4,628.6000000014901,344,H
2023-04-14T23:11:35Z,qt76109e,serial-reaction-time,1,R,3,1,63,2341,0,3,759.7000000029802,443,L
2023-04-14T23:11:36Z,qt76109e,serial-reaction-time,1,P,3,1,64,2341,0,1,386.5,431,H
2023-04-14T23:11:36Z,qt76109e,serial-reaction-time,1,R,3,1,65,2341,0,2,409.5,312,L
2023-04-14T23:11:37Z,qt76109e,serial-reaction-time,NA,P,3,1,66,2341,0,2,525.1999999955297,122,H
2023-04-14T23:11:37Z,qt76109e,serial-reaction-time,NA,P,3,0,66,2341,0,2,924.6999999955297,122,H
2023-04-14T23:11:37Z,qt76109e,serial-reaction-time,1,P,3,0,66,2341,0,2,925.5,122,H
2023-04-14T23:11:39Z,qt76109e,serial-reaction-time,1,R,3,1,67,2341,0,2,1066.10000000149,222,R
2023-04-14T23:11:39Z,qt76109e,serial-reaction-time,1,P,3,1,68,2341,0,3,414,223,H
2023-04-14T23:11:40Z,qt76109e,serial-reaction-time,1,R,3,1,69,2341,0,2,534.8000000044703,232,T
2023-04-14T23:11:41Z,qt76109e,serial-reaction-time,1,P,3,1,70,2341,0,4,721.3999999985099,324,H
2023-04-14T23:11:41Z,qt76109e,serial-reaction-time,NA,R,3,1,71,2341,0,3,412.8999999985099,243,H
2023-04-14T23:11:41Z,qt76109e,serial-reaction-time,1,R,3,0,71,2341,0,3,439.5,243,H
2023-04-14T23:11:42Z,qt76109e,serial-reaction-time,NA,P,3,1,72,2341,0,1,498.5,431,H
2023-04-14T23:11:42Z,qt76109e,serial-reaction-time,1,P,3,0,72,2341,0,1,555.3999999985099,431,H
2023-04-14T23:11:43Z,qt76109e,serial-reaction-time,1,R,3,1,73,2341,0,3,521.8999999985099,313,T
2023-04-14T23:11:43Z,qt76109e,serial-reaction-time,1,P,3,1,74,2341,0,2,484,132,H
2023-04-14T23:11:44Z,qt76109e,serial-reaction-time,1,R,3,1,75,2341,0,4,450.1000000014901,324,H
2023-04-14T23:11:44Z,qt76109e,serial-reaction-time,1,P,3,1,76,2341,0,3,349.29999999701977,243,H
2023-04-14T23:11:45Z,qt76109e,serial-reaction-time,1,R,3,1,77,2341,0,1,603.8999999985099,431,H
2023-04-14T23:11:45Z,qt76109e,serial-reaction-time,1,P,3,1,78,2341,0,4,402.3999999985099,314,H
2023-04-14T23:11:46Z,qt76109e,serial-reaction-time,1,R,3,1,79,2341,0,1,412.79999999701977,141,T
2023-04-14T23:11:47Z,qt76109e,serial-reaction-time,1,P,3,1,80,2341,0,1,366.3999999985099,411,H
2023-04-14T23:11:52Z,qt76109e,html-keyboard-response,NA,NA,NA,NA,NA,NA,NA,NA,NA,NA,NA
2023-04-14T23:12:12Z,qt76109e,html-keyboard-response,NA,NA,NA,NA,NA,NA,NA,NA,NA,NA,NA
2023-04-14T23:12:13Z,qt76109e,serial-reaction-time,1,R,4,1,1,2341,0,1,529.6000000014901,1,X
2023-04-14T23:12:14Z,qt76109e,serial-reaction-time,1,P,4,1,2,2341,0,2,391.8999999985099,12,X
2023-04-14T23:12:14Z,qt76109e,serial-reaction-time,1,R,4,1,3,2341,0,2,253.79999999701977,122,H
2023-04-14T23:12:15Z,qt76109e,serial-reaction-time,1,P,4,1,4,2341,0,3,338.40000000596046,223,H
2023-04-14T23:12:15Z,qt76109e,serial-reaction-time,1,R,4,1,5,2341,0,2,412.29999999701977,232,T
2023-04-14T23:12:16Z,qt76109e,serial-reaction-time,NA,P,4,1,6,2341,0,4,389.59999999403954,324,H
2023-04-14T23:12:16Z,qt76109e,serial-reaction-time,1,P,4,0,6,2341,0,4,685.9999999925494,324,H
2023-04-14T23:12:17Z,qt76109e,serial-reaction-time,1,R,4,1,7,2341,0,4,310.19999999552965,244,L
2023-04-14T23:12:17Z,qt76109e,serial-reaction-time,1,P,4,1,8,2341,0,1,351.3999999985099,441,H
2023-04-14T23:12:18Z,qt76109e,serial-reaction-time,1,R,4,1,9,2341,0,3,407.90000000596046,413,L
2023-04-14T23:12:18Z,qt76109e,serial-reaction-time,1,P,4,1,10,2341,0,2,350.8999999985099,132,H
2023-04-14T23:12:19Z,qt76109e,serial-reaction-time,NA,R,4,1,11,2341,0,1,290.6000000014901,321,L
2023-04-14T23:12:19Z,qt76109e,serial-reaction-time,1,R,4,0,11,2341,0,1,509.30000000447035,321,L
2023-04-14T23:12:19Z,qt76109e,serial-reaction-time,1,P,4,1,12,2341,0,3,423.20000000298023,213,H
2023-04-14T23:12:20Z,qt76109e,serial-reaction-time,1,R,4,1,13,2341,0,2,447.30000000447035,132,H
2023-04-14T23:12:20Z,qt76109e,serial-reaction-time,NA,P,4,1,14,2341,0,4,388.5,324,H
2023-04-14T23:12:21Z,qt76109e,serial-reaction-time,1,P,4,0,14,2341,0,4,476.59999999403954,324,H
2023-04-14T23:12:21Z,qt76109e,serial-reaction-time,NA,R,4,1,15,2341,0,1,159.09999999403954,241,L
2023-04-14T23:12:21Z,qt76109e,serial-reaction-time,1,R,4,0,15,2341,0,1,504.4999999925494,241,L
2023-04-14T23:12:22Z,qt76109e,serial-reaction-time,1,P,4,1,16,2341,0,1,392.30000000447035,411,H
2023-04-14T23:12:22Z,qt76109e,serial-reaction-time,NA,R,4,1,17,2341,0,3,357.59999999403954,113,L
2023-04-14T23:12:23Z,qt76109e,serial-reaction-time,1,R,4,0,17,2341,0,3,733.9999999925494,113,L
2023-04-14T23:12:23Z,qt76109e,serial-reaction-time,1,P,4,1,18,2341,0,2,365.90000000596046,132,H
2023-04-14T23:12:24Z,qt76109e,serial-reaction-time,1,R,4,1,19,2341,0,3,330.70000000298023,323,T
2023-04-14T23:12:24Z,qt76109e,serial-reaction-time,1,P,4,1,20,2341,0,3,348,233,H
2023-04-14T23:12:25Z,qt76109e,serial-reaction-time,1,R,4,1,21,2341,0,1,761.6000000014901,331,L
2023-04-14T23:12:26Z,qt76109e,serial-reaction-time,1,P,4,1,22,2341,0,4,858.8000000044703,314,H
2023-04-14T23:12:27Z,qt76109e,serial-reaction-time,1,R,4,1,23,2341,0,1,777.6000000014901,141,T
2023-04-14T23:12:27Z,qt76109e,serial-reaction-time,1,P,4,1,24,2341,0,1,290.29999999701977,411,H
2023-04-14T23:12:28Z,qt76109e,serial-reaction-time,1,R,4,1,25,2341,0,1,378.29999999701977,111,R
2023-04-14T23:12:28Z,qt76109e,serial-reaction-time,1,P,4,1,26,2341,0,2,380.1000000014901,112,H
2023-04-14T23:12:29Z,qt76109e,serial-reaction-time,NA,R,4,1,27,2341,0,4,357,124,L
2023-04-14T23:12:29Z,qt76109e,serial-reaction-time,1,R,4,0,27,2341,0,4,693,124,L
2023-04-14T23:12:30Z,qt76109e,serial-reaction-time,1,P,4,1,28,2341,0,3,418.29999999701977,243,H
2023-04-14T23:12:30Z,qt76109e,serial-reaction-time,1,R,4,1,29,2341,0,3,290.80000000447035,433,L
2023-04-14T23:12:31Z,qt76109e,serial-reaction-time,NA,P,4,1,30,2341,0,4,350.79999999701977,334,H
2023-04-14T23:12:31Z,qt76109e,serial-reaction-time,1,P,4,0,30,2341,0,4,405.29999999701977,334,H
2023-04-14T23:12:31Z,qt76109e,serial-reaction-time,1,R,4,1,31,2341,0,2,415.30000000447035,342,L
2023-04-14T23:12:32Z,qt76109e,serial-reaction-time,1,P,4,1,32,2341,0,1,563.5999999940395,421,H
2023-04-14T23:12:32Z,qt76109e,serial-reaction-time,1,R,4,1,33,2341,0,1,349,211,L
2023-04-14T23:12:33Z,qt76109e,serial-reaction-time,1,P,4,1,34,2341,0,2,754.8999999985099,112,H
2023-04-14T23:12:35Z,qt76109e,serial-reaction-time,1,R,4,1,35,2341,0,4,1052.5,124,L
2023-04-14T23:12:35Z,qt76109e,serial-reaction-time,1,P,4,1,36,2341,0,3,535.9000000059605,243,H
2023-04-14T23:12:36Z,qt76109e,serial-reaction-time,1,R,4,1,37,2341,0,1,646.8999999985099,431,H
2023-04-14T23:12:37Z,qt76109e,serial-reaction-time,1,P,4,1,38,2341,0,4,419.70000000298023,314,H
2023-04-14T23:12:37Z,qt76109e,serial-reaction-time,1,R,4,1,39,2341,0,4,376.29999999701977,144,L
2023-04-14T23:12:38Z,qt76109e,serial-reaction-time,1,P,4,1,40,2341,0,1,381.70000000298023,441,H
2023-04-14T23:12:38Z,qt76109e,serial-reaction-time,1,R,4,1,41,2341,0,3,417.80000000447035,413,L
2023-04-14T23:12:39Z,qt76109e,serial-reaction-time,1,P,4,1,42,2341,0,2,726.8000000044703,132,H
2023-04-14T23:12:40Z,qt76109e,serial-reaction-time,1,R,4,1,43,2341,0,1,791.2999999970198,321,L
2023-04-14T23:12:41Z,qt76109e,serial-reaction-time,1,P,4,1,44,2341,0,3,788.8999999985099,213,H
2023-04-14T23:12:42Z,qt76109e,serial-reaction-time,1,R,4,1,45,2341,0,3,825.5,133,L
2023-04-14T23:12:43Z,qt76109e,serial-reaction-time,1,P,4,1,46,2341,0,4,818.2999999970198,334,H
2023-04-14T23:12:43Z,qt76109e,serial-reaction-time,1,R,4,1,47,2341,0,4,235.10000000149012,344,H
2023-04-14T23:12:44Z,qt76109e,serial-reaction-time,1,P,4,1,48,2341,0,1,358,441,H
2023-04-14T23:12:44Z,qt76109e,serial-reaction-time,1,R,4,1,49,2341,0,3,377.70000000298023,413,L
2023-04-14T23:12:45Z,qt76109e,serial-reaction-time,1,P,4,1,50,2341,0,2,339.30000000447035,132,H
2023-04-14T23:12:45Z,qt76109e,serial-reaction-time,NA,R,4,1,51,2341,0,4,355.80000000447035,324,H
2023-04-14T23:12:45Z,qt76109e,serial-reaction-time,1,R,4,0,51,2341,0,4,542.3000000044703,324,H
2023-04-14T23:12:46Z,qt76109e,serial-reaction-time,NA,P,4,1,52,2341,0,3,430,243,H
2023-04-14T23:12:46Z,qt76109e,serial-reaction-time,1,P,4,0,52,2341,0,3,514.1999999955297,243,H
2023-04-14T23:12:46Z,qt76109e,serial-reaction-time,1,R,4,1,53,2341,0,1,430.8999999985099,431,H
2023-04-14T23:12:47Z,qt76109e,serial-reaction-time,1,P,4,1,54,2341,0,4,275.19999999552965,314,H
2023-04-14T23:12:47Z,qt76109e,serial-reaction-time,1,R,4,1,55,2341,0,4,315.8999999985099,144,L
2023-04-14T23:12:48Z,qt76109e,serial-reaction-time,1,P,4,1,56,2341,0,1,370.70000000298023,441,H
2023-04-14T23:12:48Z,qt76109e,serial-reaction-time,NA,R,4,1,57,2341,0,4,449.5,414,T
2023-04-14T23:12:49Z,qt76109e,serial-reaction-time,1,R,4,0,57,2341,0,4,785.6000000014901,414,T
2023-04-14T23:12:50Z,qt76109e,serial-reaction-time,1,P,4,1,58,2341,0,2,907.89999999851,142,H
2023-04-14T23:12:50Z,qt76109e,serial-reaction-time,NA,R,4,1,59,2341,0,1,261.79999999701977,421,H
2023-04-14T23:12:50Z,qt76109e,serial-reaction-time,1,R,4,0,59,2341,0,1,462.69999999552965,421,H
2023-04-14T23:12:51Z,qt76109e,serial-reaction-time,1,P,4,1,60,2341,0,3,417.69999999552965,213,H
2023-04-14T23:12:51Z,qt76109e,serial-reaction-time,1,R,4,1,61,2341,0,4,375.5,134,L
2023-04-14T23:12:52Z,qt76109e,serial-reaction-time,1,P,4,1,62,2341,0,4,344.90000000596046,344,H
2023-04-14T23:12:53Z,qt76109e,serial-reaction-time,1,R,4,1,63,2341,0,3,488.19999999552965,443,L
2023-04-14T23:12:53Z,qt76109e,serial-reaction-time,1,P,4,1,64,2341,0,1,320.8999999985099,431,H
2023-04-14T23:12:54Z,qt76109e,serial-reaction-time,1,R,4,1,65,2341,0,4,506.8999999985099,314,H
2023-04-14T23:12:55Z,qt76109e,serial-reaction-time,1,P,4,1,66,2341,0,2,869.8000000044703,142,H
2023-04-14T23:12:55Z,qt76109e,serial-reaction-time,1,R,4,1,67,2341,0,1,405.29999999701977,421,H
2023-04-14T23:12:56Z,qt76109e,serial-reaction-time,1,P,4,1,68,2341,0,3,399.1000000014901,213,H
2023-04-14T23:12:56Z,qt76109e,serial-reaction-time,NA,R,4,1,69,2341,0,2,333.8999999985099,132,H
2023-04-14T23:12:57Z,qt76109e,serial-reaction-time,1,R,4,0,69,2341,0,2,582.7000000029802,132,H
2023-04-14T23:12:57Z,qt76109e,serial-reaction-time,1,P,4,1,70,2341,0,4,430.29999999701977,324,H
2023-04-14T23:12:58Z,qt76109e,serial-reaction-time,1,R,4,1,71,2341,0,3,402.29999999701977,243,H
2023-04-14T23:12:58Z,qt76109e,serial-reaction-time,1,P,4,1,72,2341,0,1,477.40000000596046,431,H
2023-04-14T23:12:59Z,qt76109e,serial-reaction-time,NA,R,4,1,73,2341,0,4,252.5,314,H
2023-04-14T23:12:59Z,qt76109e,serial-reaction-time,1,R,4,0,73,2341,0,4,572.5,314,H
2023-04-14T23:13:00Z,qt76109e,serial-reaction-time,1,P,4,1,74,2341,0,2,449.8999999985099,142,H
2023-04-14T23:13:00Z,qt76109e,serial-reaction-time,1,R,4,1,75,2341,0,4,386.6000000014901,424,T
2023-04-14T23:13:01Z,qt76109e,serial-reaction-time,1,P,4,1,76,2341,0,3,513.3999999985099,243,H
2023-04-14T23:13:02Z,qt76109e,serial-reaction-time,NA,R,4,1,77,2341,0,1,953.60000000149,431,H
2023-04-14T23:13:02Z,qt76109e,serial-reaction-time,1,R,4,0,77,2341,0,1,1234,431,H
2023-04-14T23:13:03Z,qt76109e,serial-reaction-time,1,P,4,1,78,2341,0,4,431.8999999985099,314,H
2023-04-14T23:13:03Z,qt76109e,serial-reaction-time,1,R,4,1,79,2341,0,2,419.8999999985099,142,H
2023-04-14T23:13:04Z,qt76109e,serial-reaction-time,1,P,4,1,80,2341,0,1,508.1000000014901,421,H
2023-04-14T23:13:09Z,qt76109e,html-keyboard-response,NA,NA,NA,NA,NA,NA,NA,NA,NA,NA,NA
2023-04-14T23:13:56Z,qt76109e,html-keyboard-response,NA,NA,NA,NA,NA,NA,NA,NA,NA,NA,NA
2023-04-14T23:13:57Z,qt76109e,serial-reaction-time,1,R,5,1,1,2341,0,1,431.79999999701977,1,X
2023-04-14T23:13:58Z,qt76109e,serial-reaction-time,1,P,5,1,2,2341,0,2,431.19999999552965,12,X
2023-04-14T23:13:58Z,qt76109e,serial-reaction-time,1,R,5,1,3,2341,0,4,413.29999999701977,124,L
2023-04-14T23:13:59Z,qt76109e,serial-reaction-time,1,P,5,1,4,2341,0,3,394.3999999985099,243,H
2023-04-14T23:13:59Z,qt76109e,serial-reaction-time,1,R,5,1,5,2341,0,2,410.90000000596046,432,L
2023-04-14T23:14:00Z,qt76109e,serial-reaction-time,1,P,5,1,6,2341,0,4,397.80000000447035,324,H
2023-04-14T23:14:00Z,qt76109e,serial-reaction-time,1,R,5,1,7,2341,0,3,340.20000000298023,243,H
2023-04-14T23:14:01Z,qt76109e,serial-reaction-time,1,P,5,1,8,2341,0,1,415.5,431,H
2023-04-14T23:14:01Z,qt76109e,serial-reaction-time,1,R,5,1,9,2341,0,3,336.5,313,T
2023-04-14T23:14:02Z,qt76109e,serial-reaction-time,1,P,5,1,10,2341,0,2,400.20000000298023,132,H
2023-04-14T23:14:02Z,qt76109e,serial-reaction-time,NA,R,5,1,11,2341,0,4,397.59999999403954,324,H
2023-04-14T23:14:03Z,qt76109e,serial-reaction-time,1,R,5,0,11,2341,0,4,441.9999999925494,324,H
2023-04-14T23:14:03Z,qt76109e,serial-reaction-time,NA,P,5,1,12,2341,0,3,319.80000000447035,243,H
2023-04-14T23:14:03Z,qt76109e,serial-reaction-time,1,P,5,0,12,2341,0,3,454.6000000014901,243,H
2023-04-14T23:14:04Z,qt76109e,serial-reaction-time,1,R,5,1,13,2341,0,4,491,434,T
2023-04-14T23:14:04Z,qt76109e,serial-reaction-time,1,P,5,1,14,2341,0,4,405.29999999701977,344,H
2023-04-14T23:14:05Z,qt76109e,serial-reaction-time,1,R,5,1,15,2341,0,3,366.6000000014901,443,L
2023-04-14T23:14:05Z,qt76109e,serial-reaction-time,1,P,5,1,16,2341,0,1,393.79999999701977,431,H
2023-04-14T23:14:06Z,qt76109e,serial-reaction-time,1,R,5,1,17,2341,0,4,461.3999999985099,314,H
2023-04-14T23:14:06Z,qt76109e,serial-reaction-time,1,P,5,1,18,2341,0,2,360.69999999552965,142,H
2023-04-14T23:14:07Z,qt76109e,serial-reaction-time,1,R,5,1,19,2341,0,2,314.20000000298023,422,L
2023-04-14T23:14:07Z,qt76109e,serial-reaction-time,1,P,5,1,20,2341,0,3,331.69999999552965,223,H
2023-04-14T23:14:08Z,qt76109e,serial-reaction-time,1,R,5,1,21,2341,0,4,436.5,234,L
2023-04-14T23:14:08Z,qt76109e,serial-reaction-time,1,P,5,1,22,2341,0,4,320.3999999985099,344,H
2023-04-14T23:14:09Z,qt76109e,serial-reaction-time,NA,R,5,1,23,2341,0,2,431.3999999985099,442,L
2023-04-14T23:14:09Z,qt76109e,serial-reaction-time,1,R,5,0,23,2341,0,2,723.1000000014901,442,L
2023-04-14T23:14:10Z,qt76109e,serial-reaction-time,1,P,5,1,24,2341,0,1,538.3999999985099,421,H
2023-04-14T23:14:10Z,qt76109e,serial-reaction-time,1,R,5,1,25,2341,0,3,419.79999999701977,213,H
2023-04-14T23:14:11Z,qt76109e,serial-reaction-time,1,P,5,1,26,2341,0,2,362.3999999985099,132,H
2023-04-14T23:14:11Z,qt76109e,serial-reaction-time,1,R,5,1,27,2341,0,3,316.5,323,T
2023-04-14T23:14:12Z,qt76109e,serial-reaction-time,1,P,5,1,28,2341,0,3,317,233,H
2023-04-14T23:14:12Z,qt76109e,serial-reaction-time,1,R,5,1,29,2341,0,2,379.90000000596046,332,L
2023-04-14T23:14:13Z,qt76109e,serial-reaction-time,1,P,5,1,30,2341,0,4,430.8999999985099,324,H
2023-04-14T23:14:13Z,qt76109e,serial-reaction-time,NA,R,5,1,31,2341,0,3,352,243,H
2023-04-14T23:14:14Z,qt76109e,serial-reaction-time,1,R,5,0,31,2341,0,3,556.7000000029802,243,H
2023-04-14T23:14:14Z,qt76109e,serial-reaction-time,1,P,5,1,32,2341,0,1,538.3999999985099,431,H
2023-04-14T23:14:15Z,qt76109e,serial-reaction-time,1,R,5,1,33,2341,0,4,460.8999999985099,314,H
2023-04-14T23:14:16Z,qt76109e,serial-reaction-time,1,P,5,1,34,2341,0,2,603.4000000059605,142,H
2023-04-14T23:14:16Z,qt76109e,serial-reaction-time,1,R,5,1,35,2341,0,2,434.3999999985099,422,L
2023-04-14T23:14:17Z,qt76109e,serial-reaction-time,1,P,5,1,36,2341,0,3,380.8999999985099,223,H
2023-04-14T23:14:17Z,qt76109e,serial-reaction-time,1,R,5,1,37,2341,0,4,440.3999999985099,234,L
2023-04-14T23:14:18Z,qt76109e,serial-reaction-time,1,P,5,1,38,2341,0,4,297.69999999552965,344,H
2023-04-14T23:14:18Z,qt76109e,serial-reaction-time,1,R,5,1,39,2341,0,3,412.79999999701977,443,L
2023-04-14T23:14:19Z,qt76109e,serial-reaction-time,1,P,5,1,40,2341,0,1,536.3000000044703,431,H
2023-04-14T23:14:20Z,qt76109e,serial-reaction-time,1,R,5,1,41,2341,0,1,515.1000000014901,311,L
2023-04-14T23:14:20Z,qt76109e,serial-reaction-time,1,P,5,1,42,2341,0,2,563.1999999955297,112,H
2023-04-14T23:14:21Z,qt76109e,serial-reaction-time,1,R,5,1,43,2341,0,2,375.20000000298023,122,H
2023-04-14T23:14:21Z,qt76109e,serial-reaction-time,1,P,5,1,44,2341,0,3,391.70000000298023,223,H
2023-04-14T23:14:22Z,qt76109e,serial-reaction-time,1,R,5,1,45,2341,0,4,354.30000000447035,234,L
2023-04-14T23:14:22Z,qt76109e,serial-reaction-time,1,P,5,1,46,2341,0,4,312.20000000298023,344,H
2023-04-14T23:14:23Z,qt76109e,serial-reaction-time,1,R,5,1,47,2341,0,2,389.1000000014901,442,L
2023-04-14T23:14:23Z,qt76109e,serial-reaction-time,1,P,5,1,48,2341,0,1,351.69999999552965,421,H
2023-04-14T23:14:24Z,qt76109e,serial-reaction-time,1,R,5,1,49,2341,0,1,325.6000000014901,211,L
2023-04-14T23:14:24Z,qt76109e,serial-reaction-time,1,P,5,1,50,2341,0,2,366.79999999701977,112,H
2023-04-14T23:14:25Z,qt76109e,serial-reaction-time,1,R,5,1,51,2341,0,3,439.3999999985099,123,L
2023-04-14T23:14:25Z,qt76109e,serial-reaction-time,1,P,5,1,52,2341,0,3,330.69999999552965,233,H
2023-04-14T23:14:26Z,qt76109e,serial-reaction-time,1,R,5,1,53,2341,0,2,298.59999999403954,332,L
2023-04-14T23:14:26Z,qt76109e,serial-reaction-time,1,P,5,1,54,2341,0,4,352.1000000014901,324,H
2023-04-14T23:14:27Z,qt76109e,serial-reaction-time,1,R,5,1,55,2341,0,2,406.1000000014901,242,T
2023-04-14T23:14:27Z,qt76109e,serial-reaction-time,NA,P,5,1,56,2341,0,1,349.6000000014901,421,H
2023-04-14T23:14:27Z,qt76109e,serial-reaction-time,1,P,5,0,56,2341,0,1,536.8999999985099,421,H
2023-04-14T23:14:28Z,qt76109e,serial-reaction-time,1,R,5,1,57,2341,0,1,238.69999999552965,211,L
2023-04-14T23:14:28Z,qt76109e,serial-reaction-time,1,P,5,1,58,2341,0,2,313.5,112,H
2023-04-14T23:14:29Z,qt76109e,serial-reaction-time,NA,R,5,1,59,2341,0,4,374.1000000014901,124,L
2023-04-14T23:14:29Z,qt76109e,serial-reaction-time,1,R,5,0,59,2341,0,4,710.2000000029802,124,L
2023-04-14T23:14:30Z,qt76109e,serial-reaction-time,1,P,5,1,60,2341,0,3,435.79999999701977,243,H
2023-04-14T23:14:30Z,qt76109e,serial-reaction-time,1,R,5,1,61,2341,0,3,361.20000000298023,433,L
2023-04-14T23:14:31Z,qt76109e,serial-reaction-time,1,P,5,1,62,2341,0,4,350,334,H
2023-04-14T23:14:31Z,qt76109e,serial-reaction-time,1,R,5,1,63,2341,0,2,565.1000000014901,342,L
2023-04-14T23:14:32Z,qt76109e,serial-reaction-time,1,P,5,1,64,2341,0,1,581.1999999955297,421,H
2023-04-14T23:14:33Z,qt76109e,serial-reaction-time,1,R,5,1,65,2341,0,2,391.5,212,T
2023-04-14T23:14:33Z,qt76109e,serial-reaction-time,1,P,5,1,66,2341,0,2,382.5,122,H
2023-04-14T23:14:34Z,qt76109e,serial-reaction-time,1,R,5,1,67,2341,0,4,417.8999999985099,224,L
2023-04-14T23:14:34Z,qt76109e,serial-reaction-time,1,P,5,1,68,2341,0,3,462.8999999985099,243,H
2023-04-14T23:14:35Z,qt76109e,serial-reaction-time,1,R,5,1,69,2341,0,3,287.40000000596046,433,L
2023-04-14T23:14:35Z,qt76109e,serial-reaction-time,1,P,5,1,70,2341,0,4,286.69999999552965,334,H
2023-04-14T23:14:37Z,qt76109e,serial-reaction-time,1,R,5,1,71,2341,0,1,1373.89999999851,341,L
2023-04-14T23:14:37Z,qt76109e,serial-reaction-time,1,P,5,1,72,2341,0,1,333.30000000447035,411,H
2023-04-14T23:14:38Z,qt76109e,serial-reaction-time,1,R,5,1,73,2341,0,2,378.5,112,H
2023-04-14T23:14:38Z,qt76109e,serial-reaction-time,1,P,5,1,74,2341,0,2,336.40000000596046,122,H
2023-04-14T23:14:39Z,qt76109e,serial-reaction-time,1,R,5,1,75,2341,0,2,380.3999999985099,222,R
2023-04-14T23:14:40Z,qt76109e,serial-reaction-time,1,P,5,1,76,2341,0,3,1256.89999999851,223,H
2023-04-14T23:14:41Z,qt76109e,serial-reaction-time,NA,R,5,1,77,2341,0,1,844,231,L
2023-04-14T23:14:41Z,qt76109e,serial-reaction-time,NA,R,5,0,77,2341,0,1,1232.2000000029802,231,L
2023-04-14T23:14:41Z,qt76109e,serial-reaction-time,1,R,5,0,77,2341,0,1,1251.7999999970198,231,L
2023-04-14T23:14:42Z,qt76109e,serial-reaction-time,1,P,5,1,78,2341,0,4,508.70000000298023,314,H
2023-04-14T23:14:43Z,qt76109e,serial-reaction-time,1,R,5,1,79,2341,0,2,404.5,142,H
2023-04-14T23:14:45Z,qt76109e,serial-reaction-time,1,P,5,1,80,2341,0,1,2615.89999999851,421,H
2023-04-14T23:14:50Z,qt76109e,html-keyboard-response,NA,NA,NA,NA,NA,NA,NA,NA,NA,NA,NA
2023-04-14T23:14:53Z,qt76109e,html-keyboard-response,NA,NA,NA,NA,NA,NA,NA,NA,NA,NA,NA
2023-04-14T23:14:54Z,qt76109e,fullscreen,NA,NA,NA,NA,NA,NA,NA,NA,NA,NA,NA
2023-04-15T12:12:27Z,8op4movi,fullscreen,NA,NA,NA,NA,NA,NA,NA,NA,NA,NA,NA
2023-04-15T12:12:39Z,8op4movi,html-keyboard-response,NA,NA,NA,NA,NA,NA,NA,NA,NA,NA,NA
2023-04-15T12:12:41Z,8op4movi,serial-reaction-time,1,R,1,1,1,2134,0,2,660.5999999996275,2,X
2023-04-15T12:12:41Z,8op4movi,serial-reaction-time,1,P,1,1,2,2134,0,2,367.79999999981374,22,X
2023-04-15T12:12:42Z,8op4movi,serial-reaction-time,1,R,1,1,3,2134,0,1,341.20000000018626,221,H
2023-04-15T12:12:42Z,8op4movi,serial-reaction-time,1,P,1,1,4,2134,0,1,382.70000000018626,211,H
2023-04-15T12:12:43Z,8op4movi,serial-reaction-time,1,R,1,1,5,2134,0,3,425.4000000003726,113,H
2023-04-15T12:12:43Z,8op4movi,serial-reaction-time,1,P,1,1,6,2134,0,3,330.70000000018626,133,H
2023-04-15T12:12:44Z,8op4movi,serial-reaction-time,1,R,1,1,7,2134,0,2,480.70000000018626,332,L
2023-04-15T12:12:44Z,8op4movi,serial-reaction-time,1,P,1,1,8,2134,0,4,441.5,324,H
2023-04-15T12:12:45Z,8op4movi,serial-reaction-time,1,R,1,1,9,2134,0,1,482.29999999981374,241,H
2023-04-15T12:12:45Z,8op4movi,serial-reaction-time,1,P,1,1,10,2134,0,2,445.9000000003726,412,H
2023-04-15T12:12:46Z,8op4movi,serial-reaction-time,1,R,1,1,11,2134,0,2,381.8999999994412,122,L
2023-04-15T12:12:47Z,8op4movi,serial-reaction-time,1,P,1,1,12,2134,0,1,423.3999999994412,221,H
2023-04-15T12:12:47Z,8op4movi,serial-reaction-time,1,R,1,1,13,2134,0,2,381.5999999996274,212,T
2023-04-15T12:12:48Z,8op4movi,serial-reaction-time,1,P,1,1,14,2134,0,3,436.29999999981374,123,H
2023-04-15T12:12:48Z,8op4movi,serial-reaction-time,1,R,1,1,15,2134,0,1,387.5999999996274,231,H
2023-04-15T12:12:49Z,8op4movi,serial-reaction-time,1,P,1,1,16,2134,0,4,791.7000000001863,314,H
2023-04-15T12:12:50Z,8op4movi,serial-reaction-time,1,R,1,1,17,2134,0,1,430.5999999996274,141,T
2023-04-15T12:12:50Z,8op4movi,serial-reaction-time,1,P,1,1,18,2134,0,2,389.9000000003726,412,H
2023-04-15T12:12:51Z,8op4movi,serial-reaction-time,1,R,1,1,19,2134,0,3,385.80000000074506,123,H
2023-04-15T12:12:51Z,8op4movi,serial-reaction-time,1,P,1,1,20,2134,0,1,380.5999999996274,231,H
2023-04-15T12:12:52Z,8op4movi,serial-reaction-time,1,R,1,1,21,2134,0,2,451.5,312,L
2023-04-15T12:12:52Z,8op4movi,serial-reaction-time,1,P,1,1,22,2134,0,3,371.70000000018626,123,H
2023-04-15T12:12:53Z,8op4movi,serial-reaction-time,1,R,1,1,23,2134,0,1,362.29999999981374,231,H
2023-04-15T12:12:53Z,8op4movi,serial-reaction-time,1,P,1,1,24,2134,0,4,482.3999999994412,314,H
2023-04-15T12:12:54Z,8op4movi,serial-reaction-time,1,R,1,1,25,2134,0,1,379.5,141,T
2023-04-15T12:12:54Z,8op4movi,serial-reaction-time,1,P,1,1,26,2134,0,2,418.5,412,H
2023-04-15T12:12:55Z,8op4movi,serial-reaction-time,1,R,1,1,27,2134,0,4,412.0999999996274,124,L
2023-04-15T12:12:55Z,8op4movi,serial-reaction-time,1,P,1,1,28,2134,0,1,323,241,H
2023-04-15T12:12:56Z,8op4movi,serial-reaction-time,1,R,1,1,29,2134,0,3,375.5,413,L
2023-04-15T12:12:56Z,8op4movi,serial-reaction-time,1,P,1,1,30,2134,0,3,347.8999999994412,133,H
2023-04-15T12:12:57Z,8op4movi,serial-reaction-time,1,R,1,1,31,2134,0,1,332.8999999994412,331,L
2023-04-15T12:12:57Z,8op4movi,serial-reaction-time,1,P,1,1,32,2134,0,4,392.9000000003726,314,H
2023-04-15T12:12:58Z,8op4movi,serial-reaction-time,1,R,1,1,33,2134,0,1,355.3999999994412,141,T
2023-04-15T12:12:58Z,8op4movi,serial-reaction-time,1,P,1,1,34,2134,0,2,515.4000000003725,412,H
2023-04-15T12:12:59Z,8op4movi,serial-reaction-time,1,R,1,1,35,2134,0,3,355.1000000005588,123,H
2023-04-15T12:12:59Z,8op4movi,serial-reaction-time,1,P,1,1,36,2134,0,1,355.90000000037253,231,H
2023-04-15T12:13:00Z,8op4movi,serial-reaction-time,1,R,1,1,37,2134,0,2,391.5,312,L
2023-04-15T12:13:00Z,8op4movi,serial-reaction-time,1,P,1,1,38,2134,0,3,371.29999999981374,123,H
2023-04-15T12:13:01Z,8op4movi,serial-reaction-time,1,R,1,1,39,2134,0,1,438.20000000018626,231,H
2023-04-15T12:13:02Z,8op4movi,serial-reaction-time,1,P,1,1,40,2134,0,4,385.0999999996274,314,H
2023-04-15T12:13:02Z,8op4movi,serial-reaction-time,1,R,1,1,41,2134,0,2,581.0999999996275,142,L
2023-04-15T12:13:03Z,8op4movi,serial-reaction-time,1,P,1,1,42,2134,0,2,348.30000000074506,422,H
2023-04-15T12:13:03Z,8op4movi,serial-reaction-time,1,R,1,1,43,2134,0,2,317.70000000018626,222,R
2023-04-15T12:13:04Z,8op4movi,serial-reaction-time,1,P,1,1,44,2134,0,1,299.40000000037253,221,H
2023-04-15T12:13:04Z,8op4movi,serial-reaction-time,1,R,1,1,45,2134,0,3,359.6000000005588,213,L
2023-04-15T12:13:05Z,8op4movi,serial-reaction-time,1,P,1,1,46,2134,0,3,325.1000000005588,133,H
2023-04-15T12:13:05Z,8op4movi,serial-reaction-time,1,R,1,1,47,2134,0,3,372,333,R
2023-04-15T12:13:06Z,8op4movi,serial-reaction-time,1,P,1,1,48,2134,0,4,389.20000000018626,334,H
2023-04-15T12:13:06Z,8op4movi,serial-reaction-time,1,R,1,1,49,2134,0,1,327.19999999925494,341,L
2023-04-15T12:13:06Z,8op4movi,serial-reaction-time,1,P,1,1,50,2134,0,2,373.6000000005588,412,H
2023-04-15T12:13:07Z,8op4movi,serial-reaction-time,1,R,1,1,51,2134,0,2,402.0999999996274,122,L
2023-04-15T12:13:08Z,8op4movi,serial-reaction-time,1,P,1,1,52,2134,0,1,462.69999999925494,221,H
2023-04-15T12:13:08Z,8op4movi,serial-reaction-time,1,R,1,1,53,2134,0,1,363.9000000003726,211,H
2023-04-15T12:13:09Z,8op4movi,serial-reaction-time,1,P,1,1,54,2134,0,3,425.79999999981374,113,H
2023-04-15T12:13:09Z,8op4movi,serial-reaction-time,1,R,1,1,55,2134,0,1,365.3999999994412,131,T
2023-04-15T12:13:10Z,8op4movi,serial-reaction-time,1,P,1,1,56,2134,0,4,403.30000000074506,314,H
2023-04-15T12:13:10Z,8op4movi,serial-reaction-time,1,R,1,1,57,2134,0,4,342,144,L
2023-04-15T12:13:11Z,8op4movi,serial-reaction-time,1,P,1,1,58,2134,0,2,522.5,442,H
2023-04-15T12:13:11Z,8op4movi,serial-reaction-time,1,R,1,1,59,2134,0,2,276.59999999962747,422,H
2023-04-15T12:13:12Z,8op4movi,serial-reaction-time,1,P,1,1,60,2134,0,1,1014.6999999992548,221,H
2023-04-15T12:13:13Z,8op4movi,serial-reaction-time,1,R,1,1,61,2134,0,4,489.9000000003726,214,L
2023-04-15T12:13:14Z,8op4movi,serial-reaction-time,1,P,1,1,62,2134,0,3,498.6000000005588,143,H
2023-04-15T12:13:14Z,8op4movi,serial-reaction-time,1,R,1,1,63,2134,0,1,381.20000000018626,431,L
2023-04-15T12:13:15Z,8op4movi,serial-reaction-time,1,P,1,1,64,2134,0,4,436.0999999996274,314,H
2023-04-15T12:13:15Z,8op4movi,serial-reaction-time,1,R,1,1,65,2134,0,3,473.4000000003726,143,H
2023-04-15T12:13:16Z,8op4movi,serial-reaction-time,NA,P,1,1,66,2134,0,2,399.20000000018626,432,H
2023-04-15T12:13:16Z,8op4movi,serial-reaction-time,1,P,1,0,66,2134,0,2,799,432,H
2023-04-15T12:13:17Z,8op4movi,serial-reaction-time,1,R,1,1,67,2134,0,1,398.1000000005588,321,L
2023-04-15T12:13:17Z,8op4movi,serial-reaction-time,1,P,1,1,68,2134,0,1,311,211,H
2023-04-15T12:13:18Z,8op4movi,serial-reaction-time,1,R,1,1,69,2134,0,1,346.30000000074506,111,R
2023-04-15T12:13:18Z,8op4movi,serial-reaction-time,1,P,1,1,70,2134,0,3,414.29999999981374,113,H
2023-04-15T12:13:19Z,8op4movi,serial-reaction-time,1,R,1,1,71,2134,0,2,441.3999999994412,132,L
2023-04-15T12:13:19Z,8op4movi,serial-reaction-time,1,P,1,1,72,2134,0,4,369.70000000018626,324,H
2023-04-15T12:13:20Z,8op4movi,serial-reaction-time,NA,R,1,1,73,2134,0,4,447,244,L
2023-04-15T12:13:20Z,8op4movi,serial-reaction-time,1,R,1,0,73,2134,0,4,451.0999999996274,244,L
2023-04-15T12:13:20Z,8op4movi,serial-reaction-time,1,P,1,1,74,2134,0,2,465,442,H
2023-04-15T12:13:21Z,8op4movi,serial-reaction-time,1,R,1,1,75,2134,0,3,494.70000000018626,423,L
2023-04-15T12:13:21Z,8op4movi,serial-reaction-time,1,P,1,1,76,2134,0,1,379.5999999996274,231,H
2023-04-15T12:13:22Z,8op4movi,serial-reaction-time,1,R,1,1,77,2134,0,4,394.20000000018626,314,H
2023-04-15T12:13:23Z,8op4movi,serial-reaction-time,1,P,1,1,78,2134,0,3,435.9000000003726,143,H
2023-04-15T12:13:23Z,8op4movi,serial-reaction-time,1,R,1,1,79,2134,0,3,614,433,L
2023-04-15T12:13:24Z,8op4movi,serial-reaction-time,1,P,1,1,80,2134,0,4,499.9000000003726,334,H
2023-04-15T12:13:29Z,8op4movi,html-keyboard-response,NA,NA,NA,NA,NA,NA,NA,NA,NA,NA,NA
2023-04-15T12:13:30Z,8op4movi,html-keyboard-response,NA,NA,NA,NA,NA,NA,NA,NA,NA,NA,NA
2023-04-15T12:13:32Z,8op4movi,serial-reaction-time,NA,R,2,1,1,2134,0,4,827.9000000003725,4,X
2023-04-15T12:13:33Z,8op4movi,serial-reaction-time,1,R,2,0,1,2134,0,4,1386,4,X
2023-04-15T12:13:33Z,8op4movi,serial-reaction-time,NA,P,2,1,2,2134,0,2,483.5999999996274,42,X
2023-04-15T12:13:34Z,8op4movi,serial-reaction-time,1,P,2,0,2,2134,0,2,1254.9000000003723,42,X
2023-04-15T12:13:35Z,8op4movi,serial-reaction-time,1,R,2,1,3,2134,0,2,346.59999999962747,422,H
2023-04-15T12:13:35Z,8op4movi,serial-reaction-time,1,P,2,1,4,2134,0,1,344.90000000037253,221,H
2023-04-15T12:13:36Z,8op4movi,serial-reaction-time,1,R,2,1,5,2134,0,4,607.6000000005588,214,L
2023-04-15T12:13:36Z,8op4movi,serial-reaction-time,1,P,2,1,6,2134,0,3,431.19999999925494,143,H
2023-04-15T12:13:37Z,8op4movi,serial-reaction-time,1,R,2,1,7,2134,0,3,322.09999999962747,433,L
2023-04-15T12:13:37Z,8op4movi,serial-reaction-time,1,P,2,1,8,2134,0,4,597.2000000001863,334,H
2023-04-15T12:13:38Z,8op4movi,serial-reaction-time,1,R,2,1,9,2134,0,1,434.5,341,L
2023-04-15T12:13:39Z,8op4movi,serial-reaction-time,1,P,2,1,10,2134,0,2,461.0999999996274,412,H
2023-04-15T12:13:39Z,8op4movi,serial-reaction-time,1,R,2,1,11,2134,0,1,491,121,T
2023-04-15T12:13:40Z,8op4movi,serial-reaction-time,1,P,2,1,12,2134,0,1,385.9000000003726,211,H
2023-04-15T12:13:40Z,8op4movi,serial-reaction-time,NA,R,2,1,13,2134,0,2,425.5,112,L
2023-04-15T12:13:41Z,8op4movi,serial-reaction-time,1,R,2,0,13,2134,0,2,913,112,L
2023-04-15T12:13:41Z,8op4movi,serial-reaction-time,1,P,2,1,14,2134,0,3,432.70000000018626,123,H
2023-04-15T12:13:42Z,8op4movi,serial-reaction-time,1,R,2,1,15,2134,0,1,447.29999999981374,231,H
2023-04-15T12:13:42Z,8op4movi,serial-reaction-time,1,P,2,1,16,2134,0,4,449.5,314,H
2023-04-15T12:13:43Z,8op4movi,serial-reaction-time,1,R,2,1,17,2134,0,3,423.9000000003726,143,H
2023-04-15T12:13:44Z,8op4movi,serial-reaction-time,1,P,2,1,18,2134,0,2,402.5999999996274,432,H
2023-04-15T12:13:44Z,8op4movi,serial-reaction-time,1,R,2,1,19,2134,0,4,389,324,H
2023-04-15T12:13:45Z,8op4movi,serial-reaction-time,1,P,2,1,20,2134,0,1,556.7999999998137,241,H
2023-04-15T12:13:45Z,8op4movi,serial-reaction-time,1,R,2,1,21,2134,0,3,409.4000000003726,413,L
2023-04-15T12:13:46Z,8op4movi,serial-reaction-time,1,P,2,1,22,2134,0,3,374.4000000003726,133,H
2023-04-15T12:13:46Z,8op4movi,serial-reaction-time,1,R,2,1,23,2134,0,1,361.79999999981374,331,L
2023-04-15T12:13:47Z,8op4movi,serial-reaction-time,1,P,2,1,24,2134,0,4,439.29999999981374,314,H
2023-04-15T12:13:47Z,8op4movi,serial-reaction-time,1,R,2,1,25,2134,0,1,416.29999999981374,141,T
2023-04-15T12:13:48Z,8op4movi,serial-reaction-time,1,P,2,1,26,2134,0,2,449.0999999996274,412,H
2023-04-15T12:13:49Z,8op4movi,serial-reaction-time,1,R,2,1,27,2134,0,3,465.4000000003726,123,H
2023-04-15T12:13:49Z,8op4movi,serial-reaction-time,1,P,2,1,28,2134,0,1,392,231,H
2023-04-15T12:13:50Z,8op4movi,serial-reaction-time,1,R,2,1,29,2134,0,1,342.90000000037253,311,L
2023-04-15T12:13:50Z,8op4movi,serial-reaction-time,1,P,2,1,30,2134,0,3,403.5999999996274,113,H
2023-04-15T12:13:51Z,8op4movi,serial-reaction-time,1,R,2,1,31,2134,0,1,683.2999999998137,131,T
2023-04-15T12:13:52Z,8op4movi,serial-reaction-time,1,P,2,1,32,2134,0,4,516.5,314,H
2023-04-15T12:13:52Z,8op4movi,serial-reaction-time,1,R,2,1,33,2134,0,4,380.5999999996274,144,L
2023-04-15T12:13:53Z,8op4movi,serial-reaction-time,1,P,2,1,34,2134,0,2,508.19999999925494,442,H
2023-04-15T12:13:53Z,8op4movi,serial-reaction-time,1,R,2,1,35,2134,0,1,396.9000000003726,421,L
2023-04-15T12:13:54Z,8op4movi,serial-reaction-time,1,P,2,1,36,2134,0,1,341.8999999994412,211,H
2023-04-15T12:13:54Z,8op4movi,serial-reaction-time,1,R,2,1,37,2134,0,3,389.0999999996274,113,H
2023-04-15T12:13:55Z,8op4movi,serial-reaction-time,1,P,2,1,38,2134,0,3,351.29999999981374,133,H
2023-04-15T12:13:55Z,8op4movi,serial-reaction-time,1,R,2,1,39,2134,0,4,359.29999999981374,334,H
2023-04-15T12:13:56Z,8op4movi,serial-reaction-time,1,P,2,1,40,2134,0,4,412.79999999981374,344,H
2023-04-15T12:13:56Z,8op4movi,serial-reaction-time,1,R,2,1,41,2134,0,2,538.5,442,H
2023-04-15T12:13:57Z,8op4movi,serial-reaction-time,1,P,2,1,42,2134,0,2,525.8999999994412,422,H
2023-04-15T12:13:57Z,8op4movi,serial-reaction-time,1,R,2,1,43,2134,0,2,339.29999999981374,222,R
2023-04-15T12:13:58Z,8op4movi,serial-reaction-time,1,P,2,1,44,2134,0,1,361.5,221,H
2023-04-15T12:13:58Z,8op4movi,serial-reaction-time,1,R,2,1,45,2134,0,1,313.09999999962747,211,H
2023-04-15T12:13:59Z,8op4movi,serial-reaction-time,1,P,2,1,46,2134,0,3,420.20000000018626,113,H
2023-04-15T12:14:00Z,8op4movi,serial-reaction-time,1,R,2,1,47,2134,0,2,475.80000000074506,132,L
2023-04-15T12:14:00Z,8op4movi,serial-reaction-time,1,P,2,1,48,2134,0,4,396.6000000005588,324,H
2023-04-15T12:14:01Z,8op4movi,serial-reaction-time,1,R,2,1,49,2134,0,4,357,244,L
2023-04-15T12:14:01Z,8op4movi,serial-reaction-time,1,P,2,1,50,2134,0,2,412.5,442,H
2023-04-15T12:14:02Z,8op4movi,serial-reaction-time,NA,R,2,1,51,2134,0,1,345.1000000005588,421,L
2023-04-15T12:14:02Z,8op4movi,serial-reaction-time,1,R,2,0,51,2134,0,1,740.4000000003725,421,L
2023-04-15T12:14:02Z,8op4movi,serial-reaction-time,1,P,2,1,52,2134,0,1,355.59999999962747,211,H
2023-04-15T12:14:03Z,8op4movi,serial-reaction-time,1,R,2,1,53,2134,0,2,528.9000000003725,112,L
2023-04-15T12:14:04Z,8op4movi,serial-reaction-time,1,P,2,1,54,2134,0,3,476.20000000018626,123,H
2023-04-15T12:14:04Z,8op4movi,serial-reaction-time,1,R,2,1,55,2134,0,2,607.7999999998137,232,T
2023-04-15T12:14:05Z,8op4movi,serial-reaction-time,1,P,2,1,56,2134,0,4,447.5999999996274,324,H
2023-04-15T12:14:06Z,8op4movi,serial-reaction-time,1,R,2,1,57,2134,0,1,452.20000000018626,241,H
2023-04-15T12:14:06Z,8op4movi,serial-reaction-time,1,P,2,1,58,2134,0,2,495,412,H
2023-04-15T12:14:07Z,8op4movi,serial-reaction-time,1,R,2,1,59,2134,0,1,506.3999999994412,121,T
2023-04-15T12:14:07Z,8op4movi,serial-reaction-time,1,P,2,1,60,2134,0,1,318.70000000018626,211,H
2023-04-15T12:14:08Z,8op4movi,serial-reaction-time,1,R,2,1,61,2134,0,3,409.8999999994412,113,H
2023-04-15T12:14:08Z,8op4movi,serial-reaction-time,1,P,2,1,62,2134,0,3,331.40000000037253,133,H
2023-04-15T12:14:09Z,8op4movi,serial-reaction-time,NA,R,2,1,63,2134,0,2,378.6000000005588,332,L
2023-04-15T12:14:09Z,8op4movi,serial-reaction-time,1,R,2,0,63,2134,0,2,448.29999999981374,332,L
2023-04-15T12:14:09Z,8op4movi,serial-reaction-time,1,P,2,1,64,2134,0,4,522.6000000005588,324,H
2023-04-15T12:14:10Z,8op4movi,serial-reaction-time,1,R,2,1,65,2134,0,1,605.0999999996275,241,H
2023-04-15T12:14:11Z,8op4movi,serial-reaction-time,1,P,2,1,66,2134,0,2,406.79999999981374,412,H
2023-04-15T12:14:11Z,8op4movi,serial-reaction-time,1,R,2,1,67,2134,0,2,311,122,L
2023-04-15T12:14:12Z,8op4movi,serial-reaction-time,NA,P,2,1,68,2134,0,1,449.70000000018626,221,H
2023-04-15T12:14:12Z,8op4movi,serial-reaction-time,1,P,2,0,68,2134,0,1,885.7999999998137,221,H
2023-04-15T12:14:13Z,8op4movi,serial-reaction-time,1,R,2,1,69,2134,0,4,498.3999999994412,214,L
2023-04-15T12:14:13Z,8op4movi,serial-reaction-time,1,P,2,1,70,2134,0,3,426.9000000003726,143,H
2023-04-15T12:14:14Z,8op4movi,serial-reaction-time,1,R,2,1,71,2134,0,3,618.5,433,L
2023-04-15T12:14:15Z,8op4movi,serial-reaction-time,1,P,2,1,72,2134,0,4,423.5,334,H
2023-04-15T12:14:15Z,8op4movi,serial-reaction-time,1,R,2,1,73,2134,0,4,378.79999999981374,344,H
2023-04-15T12:14:16Z,8op4movi,serial-reaction-time,1,P,2,1,74,2134,0,2,842.8000000007451,442,H
2023-04-15T12:14:17Z,8op4movi,serial-reaction-time,1,R,2,1,75,2134,0,3,547.5999999996275,423,L
2023-04-15T12:14:17Z,8op4movi,serial-reaction-time,1,P,2,1,76,2134,0,1,393.70000000018626,231,H
2023-04-15T12:14:18Z,8op4movi,serial-reaction-time,1,R,2,1,77,2134,0,1,363.4000000003726,311,L
2023-04-15T12:14:18Z,8op4movi,serial-reaction-time,1,P,2,1,78,2134,0,3,472.70000000018626,113,H
2023-04-15T12:14:19Z,8op4movi,serial-reaction-time,1,R,2,1,79,2134,0,2,534.2000000001863,132,L
2023-04-15T12:14:20Z,8op4movi,serial-reaction-time,1,P,2,1,80,2134,0,4,414.5999999996274,324,H
2023-04-15T12:14:25Z,8op4movi,html-keyboard-response,NA,NA,NA,NA,NA,NA,NA,NA,NA,NA,NA
2023-04-15T12:14:26Z,8op4movi,html-keyboard-response,NA,NA,NA,NA,NA,NA,NA,NA,NA,NA,NA
2023-04-15T12:14:27Z,8op4movi,serial-reaction-time,1,R,3,1,1,2134,0,4,436,4,X
2023-04-15T12:14:28Z,8op4movi,serial-reaction-time,1,P,3,1,2,2134,0,2,445.5,42,X
2023-04-15T12:14:28Z,8op4movi,serial-reaction-time,1,R,3,1,3,2134,0,3,436,423,L
2023-04-15T12:14:29Z,8op4movi,serial-reaction-time,1,P,3,1,4,2134,0,1,385.20000000018626,231,H
2023-04-15T12:14:30Z,8op4movi,serial-reaction-time,1,R,3,1,5,2134,0,3,409,313,T
2023-04-15T12:14:30Z,8op4movi,serial-reaction-time,1,P,3,1,6,2134,0,3,368.3999999994412,133,H
2023-04-15T12:14:31Z,8op4movi,serial-reaction-time,1,R,3,1,7,2134,0,1,436.20000000018626,331,L
2023-04-15T12:14:31Z,8op4movi,serial-reaction-time,1,P,3,1,8,2134,0,4,513.2999999998137,314,H
2023-04-15T12:14:32Z,8op4movi,serial-reaction-time,1,R,3,1,9,2134,0,2,479.4000000003726,142,L
2023-04-15T12:14:32Z,8op4movi,serial-reaction-time,1,P,3,1,10,2134,0,2,396.20000000018626,422,H
2023-04-15T12:14:33Z,8op4movi,serial-reaction-time,1,R,3,1,11,2134,0,2,361.3999999994412,222,R
2023-04-15T12:14:33Z,8op4movi,serial-reaction-time,1,P,3,1,12,2134,0,1,368.4000000003726,221,H
2023-04-15T12:14:34Z,8op4movi,serial-reaction-time,1,R,3,1,13,2134,0,4,464.9000000003726,214,L
2023-04-15T12:14:34Z,8op4movi,serial-reaction-time,1,P,3,1,14,2134,0,3,383.0999999996274,143,H
2023-04-15T12:14:35Z,8op4movi,serial-reaction-time,1,R,3,1,15,2134,0,3,351.59999999962747,433,L
2023-04-15T12:14:35Z,8op4movi,serial-reaction-time,1,P,3,1,16,2134,0,4,479.9000000003726,334,H
2023-04-15T12:14:36Z,8op4movi,serial-reaction-time,1,R,3,1,17,2134,0,2,411.5,342,L
2023-04-15T12:14:37Z,8op4movi,serial-reaction-time,1,P,3,1,18,2134,0,2,655.5,422,H
2023-04-15T12:14:37Z,8op4movi,serial-reaction-time,1,R,3,1,19,2134,0,1,345.5,221,H
2023-04-15T12:14:38Z,8op4movi,serial-reaction-time,1,P,3,1,20,2134,0,1,347.09999999962747,211,H
2023-04-15T12:14:38Z,8op4movi,serial-reaction-time,1,R,3,1,21,2134,0,2,532,112,L
2023-04-15T12:14:39Z,8op4movi,serial-reaction-time,1,P,3,1,22,2134,0,3,409,123,H
2023-04-15T12:14:39Z,8op4movi,serial-reaction-time,1,R,3,1,23,2134,0,3,347.29999999981374,233,L
2023-04-15T12:14:40Z,8op4movi,serial-reaction-time,1,P,3,1,24,2134,0,4,345.90000000037253,334,H
2023-04-15T12:14:41Z,8op4movi,serial-reaction-time,1,R,3,1,25,2134,0,1,549,341,L
2023-04-15T12:14:41Z,8op4movi,serial-reaction-time,1,P,3,1,26,2134,0,2,437.0999999996274,412,H
2023-04-15T12:14:42Z,8op4movi,serial-reaction-time,1,R,3,1,27,2134,0,2,386.9000000003726,122,L
2023-04-15T12:14:42Z,8op4movi,serial-reaction-time,1,P,3,1,28,2134,0,1,489.20000000018626,221,H
2023-04-15T12:14:43Z,8op4movi,serial-reaction-time,1,R,3,1,29,2134,0,4,447.8999999994412,214,L
2023-04-15T12:14:43Z,8op4movi,serial-reaction-time,1,P,3,1,30,2134,0,3,353.8999999994412,143,H
2023-04-15T12:14:44Z,8op4movi,serial-reaction-time,NA,R,3,1,31,2134,0,4,410.5999999996274,434,T
2023-04-15T12:14:44Z,8op4movi,serial-reaction-time,1,R,3,0,31,2134,0,4,758.7999999988824,434,T
2023-04-15T12:14:45Z,8op4movi,serial-reaction-time,1,P,3,1,32,2134,0,4,371.20000000018626,344,H
2023-04-15T12:14:45Z,8op4movi,serial-reaction-time,1,R,3,1,33,2134,0,4,342.19999999925494,444,R
2023-04-15T12:14:46Z,8op4movi,serial-reaction-time,1,P,3,1,34,2134,0,2,468.80000000074506,442,H
2023-04-15T12:14:46Z,8op4movi,serial-reaction-time,1,R,3,1,35,2134,0,2,401.70000000018626,422,H
2023-04-15T12:14:47Z,8op4movi,serial-reaction-time,1,P,3,1,36,2134,0,1,406,221,H
2023-04-15T12:14:47Z,8op4movi,serial-reaction-time,1,R,3,1,37,2134,0,3,394.20000000018626,213,L
2023-04-15T12:14:48Z,8op4movi,serial-reaction-time,1,P,3,1,38,2134,0,3,355.90000000037253,133,H
2023-04-15T12:14:48Z,8op4movi,serial-reaction-time,1,R,3,1,39,2134,0,4,342.1000000005588,334,H
2023-04-15T12:14:49Z,8op4movi,serial-reaction-time,1,P,3,1,40,2134,0,4,375.20000000018626,344,H
2023-04-15T12:14:49Z,8op4movi,serial-reaction-time,1,R,3,1,41,2134,0,3,468.20000000018626,443,L
2023-04-15T12:14:50Z,8op4movi,serial-reaction-time,1,P,3,1,42,2134,0,2,387.79999999981374,432,H
2023-04-15T12:14:50Z,8op4movi,serial-reaction-time,1,R,3,1,43,2134,0,2,401.5,322,L
2023-04-15T12:14:51Z,8op4movi,serial-reaction-time,1,P,3,1,44,2134,0,1,439.20000000018626,221,H
2023-04-15T12:14:52Z,8op4movi,serial-reaction-time,1,R,3,1,45,2134,0,2,445.5999999996274,212,T
2023-04-15T12:14:52Z,8op4movi,serial-reaction-time,1,P,3,1,46,2134,0,3,370.4000000003726,123,H
2023-04-15T12:14:53Z,8op4movi,serial-reaction-time,1,R,3,1,47,2134,0,1,405.0999999996274,231,H
2023-04-15T12:14:53Z,8op4movi,serial-reaction-time,1,P,3,1,48,2134,0,4,459.3999999994412,314,H
2023-04-15T12:14:54Z,8op4movi,serial-reaction-time,1,R,3,1,49,2134,0,2,448.29999999981374,142,L
2023-04-15T12:14:55Z,8op4movi,serial-reaction-time,1,P,3,1,50,2134,0,2,684.7999999998137,422,H
2023-04-15T12:14:55Z,8op4movi,serial-reaction-time,1,R,3,1,51,2134,0,2,366,222,R
2023-04-15T12:14:55Z,8op4movi,serial-reaction-time,1,P,3,1,52,2134,0,1,352.5,221,H
2023-04-15T12:14:56Z,8op4movi,serial-reaction-time,1,R,3,1,53,2134,0,1,323.20000000018626,211,H
2023-04-15T12:14:56Z,8op4movi,serial-reaction-time,1,P,3,1,54,2134,0,3,405,113,H
2023-04-15T12:14:57Z,8op4movi,serial-reaction-time,1,R,3,1,55,2134,0,1,396.5,131,T
2023-04-15T12:14:58Z,8op4movi,serial-reaction-time,1,P,3,1,56,2134,0,4,391,314,H
2023-04-15T12:14:58Z,8op4movi,serial-reaction-time,1,R,3,1,57,2134,0,1,400.9000000003726,141,T
2023-04-15T12:14:59Z,8op4movi,serial-reaction-time,1,P,3,1,58,2134,0,2,435.79999999981374,412,H
2023-04-15T12:14:59Z,8op4movi,serial-reaction-time,1,R,3,1,59,2134,0,1,455.20000000018626,121,T
2023-04-15T12:15:00Z,8op4movi,serial-reaction-time,1,P,3,1,60,2134,0,1,367.70000000018626,211,H
2023-04-15T12:15:00Z,8op4movi,serial-reaction-time,1,R,3,1,61,2134,0,2,521.4000000003725,112,L
2023-04-15T12:15:01Z,8op4movi,serial-reaction-time,1,P,3,1,62,2134,0,3,446.0999999996274,123,H
2023-04-15T12:15:01Z,8op4movi,serial-reaction-time,1,R,3,1,63,2134,0,1,411,231,H
2023-04-15T12:15:02Z,8op4movi,serial-reaction-time,1,P,3,1,64,2134,0,4,402.5,314,H
2023-04-15T12:15:03Z,8op4movi,serial-reaction-time,1,R,3,1,65,2134,0,1,619,141,T
2023-04-15T12:15:03Z,8op4movi,serial-reaction-time,1,P,3,1,66,2134,0,2,412.9000000003726,412,H
2023-04-15T12:15:04Z,8op4movi,serial-reaction-time,1,R,3,1,67,2134,0,1,430.70000000018626,121,T
2023-04-15T12:15:04Z,8op4movi,serial-reaction-time,1,P,3,1,68,2134,0,1,355.30000000074506,211,H
2023-04-15T12:15:05Z,8op4movi,serial-reaction-time,1,R,3,1,69,2134,0,3,412.6000000005588,113,H
2023-04-15T12:15:05Z,8op4movi,serial-reaction-time,1,P,3,1,70,2134,0,3,349.40000000037253,133,H
2023-04-15T12:15:06Z,8op4movi,serial-reaction-time,NA,R,3,1,71,2134,0,2,365.9000000003726,332,L
2023-04-15T12:15:06Z,8op4movi,serial-reaction-time,1,R,3,0,71,2134,0,2,810.2000000001863,332,L
2023-04-15T12:15:07Z,8op4movi,serial-reaction-time,1,P,3,1,72,2134,0,4,443,324,H
2023-04-15T12:15:07Z,8op4movi,serial-reaction-time,1,R,3,1,73,2134,0,4,337,244,L
2023-04-15T12:15:08Z,8op4movi,serial-reaction-time,1,P,3,1,74,2134,0,2,443.9000000003726,442,H
2023-04-15T12:15:09Z,8op4movi,serial-reaction-time,1,R,3,1,75,2134,0,3,558.7000000001863,423,L
2023-04-15T12:15:09Z,8op4movi,serial-reaction-time,1,P,3,1,76,2134,0,1,428.6000000005588,231,H
2023-04-15T12:15:10Z,8op4movi,serial-reaction-time,1,R,3,1,77,2134,0,3,630.2000000001863,313,T
2023-04-15T12:15:10Z,8op4movi,serial-reaction-time,1,P,3,1,78,2134,0,3,390.9000000003726,133,H
2023-04-15T12:15:11Z,8op4movi,serial-reaction-time,1,R,3,1,79,2134,0,2,578.3999999994412,332,L
2023-04-15T12:15:12Z,8op4movi,serial-reaction-time,1,P,3,1,80,2134,0,4,417.1000000005588,324,H
2023-04-15T12:15:17Z,8op4movi,html-keyboard-response,NA,NA,NA,NA,NA,NA,NA,NA,NA,NA,NA
2023-04-15T12:15:17Z,8op4movi,html-keyboard-response,NA,NA,NA,NA,NA,NA,NA,NA,NA,NA,NA
2023-04-15T12:15:19Z,8op4movi,serial-reaction-time,1,R,4,1,1,2134,0,1,436.5,1,X
2023-04-15T12:15:19Z,8op4movi,serial-reaction-time,1,P,4,1,2,2134,0,2,459.20000000018626,12,X
2023-04-15T12:15:20Z,8op4movi,serial-reaction-time,1,R,4,1,3,2134,0,2,346.1000000005588,122,L
2023-04-15T12:15:20Z,8op4movi,serial-reaction-time,1,P,4,1,4,2134,0,1,378.5,221,H
2023-04-15T12:15:21Z,8op4movi,serial-reaction-time,1,R,4,1,5,2134,0,2,367.20000000018626,212,T
2023-04-15T12:15:21Z,8op4movi,serial-reaction-time,1,P,4,1,6,2134,0,3,451.8999999994412,123,H
2023-04-15T12:15:22Z,8op4movi,serial-reaction-time,1,R,4,1,7,2134,0,3,333.69999999925494,233,L
2023-04-15T12:15:22Z,8op4movi,serial-reaction-time,1,P,4,1,8,2134,0,4,374.3999999994412,334,H
2023-04-15T12:15:23Z,8op4movi,serial-reaction-time,1,R,4,1,9,2134,0,3,408.70000000018626,343,T
2023-04-15T12:15:24Z,8op4movi,serial-reaction-time,1,P,4,1,10,2134,0,2,396.29999999981374,432,H
2023-04-15T12:15:24Z,8op4movi,serial-reaction-time,1,R,4,1,11,2134,0,4,481.19999999925494,324,H
2023-04-15T12:15:25Z,8op4movi,serial-reaction-time,1,P,4,1,12,2134,0,1,567.2000000001863,241,H
2023-04-15T12:15:25Z,8op4movi,serial-reaction-time,1,R,4,1,13,2134,0,2,381.5,412,H
2023-04-15T12:15:26Z,8op4movi,serial-reaction-time,1,P,4,1,14,2134,0,3,426.1000000005588,123,H
2023-04-15T12:15:26Z,8op4movi,serial-reaction-time,1,R,4,1,15,2134,0,1,429.29999999981374,231,H
2023-04-15T12:15:27Z,8op4movi,serial-reaction-time,1,P,4,1,16,2134,0,4,471,314,H
2023-04-15T12:15:28Z,8op4movi,serial-reaction-time,1,R,4,1,17,2134,0,2,505.19999999925494,142,L
2023-04-15T12:15:28Z,8op4movi,serial-reaction-time,1,P,4,1,18,2134,0,2,379.4000000003726,422,H
2023-04-15T12:15:29Z,8op4movi,serial-reaction-time,1,R,4,1,19,2134,0,1,431.70000000018626,221,H
2023-04-15T12:15:29Z,8op4movi,serial-reaction-time,1,P,4,1,20,2134,0,1,445.29999999981374,211,H
2023-04-15T12:15:30Z,8op4movi,serial-reaction-time,1,R,4,1,21,2134,0,4,434.0999999996274,114,L
2023-04-15T12:15:30Z,8op4movi,serial-reaction-time,1,P,4,1,22,2134,0,3,405.4000000003726,143,H
2023-04-15T12:15:31Z,8op4movi,serial-reaction-time,1,R,4,1,23,2134,0,2,351,432,H
2023-04-15T12:15:31Z,8op4movi,serial-reaction-time,1,P,4,1,24,2134,0,4,388.0999999996274,324,H
2023-04-15T12:15:32Z,8op4movi,serial-reaction-time,1,R,4,1,25,2134,0,1,429.0999999996274,241,H
2023-04-15T12:15:32Z,8op4movi,serial-reaction-time,1,P,4,1,26,2134,0,2,423.5,412,H
2023-04-15T12:15:33Z,8op4movi,serial-reaction-time,1,R,4,1,27,2134,0,3,393.79999999981374,123,H
2023-04-15T12:15:34Z,8op4movi,serial-reaction-time,1,P,4,1,28,2134,0,1,396,231,H
2023-04-15T12:15:34Z,8op4movi,serial-reaction-time,1,R,4,1,29,2134,0,3,427.9000000003726,313,T
2023-04-15T12:15:35Z,8op4movi,serial-reaction-time,1,P,4,1,30,2134,0,3,396.70000000018626,133,H
2023-04-15T12:15:35Z,8op4movi,serial-reaction-time,1,R,4,1,31,2134,0,2,436.20000000018626,332,L
2023-04-15T12:15:36Z,8op4movi,serial-reaction-time,1,P,4,1,32,2134,0,4,408.70000000018626,324,H
2023-04-15T12:15:36Z,8op4movi,serial-reaction-time,1,R,4,1,33,2134,0,4,451.0999999996274,244,L
2023-04-15T12:15:37Z,8op4movi,serial-reaction-time,1,P,4,1,34,2134,0,2,595.5,442,H
2023-04-15T12:15:38Z,8op4movi,serial-reaction-time,1,R,4,1,35,2134,0,1,388.9000000003726,421,L
2023-04-15T12:15:38Z,8op4movi,serial-reaction-time,1,P,4,1,36,2134,0,1,432.79999999981374,211,H
2023-04-15T12:15:39Z,8op4movi,serial-reaction-time,NA,R,4,1,37,2134,0,4,456.19999999925494,114,L
2023-04-15T12:15:39Z,8op4movi,serial-reaction-time,1,R,4,0,37,2134,0,4,1066.199999999255,114,L
2023-04-15T12:15:40Z,8op4movi,serial-reaction-time,1,P,4,1,38,2134,0,3,459.79999999981374,143,H
2023-04-15T12:15:40Z,8op4movi,serial-reaction-time,1,R,4,1,39,2134,0,4,478.5,434,T
2023-04-15T12:15:41Z,8op4movi,serial-reaction-time,1,P,4,1,40,2134,0,4,519.7000000001863,344,H
2023-04-15T12:15:42Z,8op4movi,serial-reaction-time,1,R,4,1,41,2134,0,1,501.30000000074506,441,L
2023-04-15T12:15:42Z,8op4movi,serial-reaction-time,1,P,4,1,42,2134,0,2,474.5,412,H
2023-04-15T12:15:43Z,8op4movi,serial-reaction-time,1,R,4,1,43,2134,0,1,479.69999999925494,121,T
2023-04-15T12:15:43Z,8op4movi,serial-reaction-time,1,P,4,1,44,2134,0,1,408.20000000018626,211,H
2023-04-15T12:15:44Z,8op4movi,serial-reaction-time,1,R,4,1,45,2134,0,3,417.20000000018626,113,H
2023-04-15T12:15:45Z,8op4movi,serial-reaction-time,1,P,4,1,46,2134,0,3,374.6000000005588,133,H
2023-04-15T12:15:45Z,8op4movi,serial-reaction-time,1,R,4,1,47,2134,0,4,390.79999999981374,334,H
2023-04-15T12:15:46Z,8op4movi,serial-reaction-time,1,P,4,1,48,2134,0,4,377.4000000003726,344,H
2023-04-15T12:15:46Z,8op4movi,serial-reaction-time,1,R,4,1,49,2134,0,4,421.29999999981374,444,R
2023-04-15T12:15:47Z,8op4movi,serial-reaction-time,1,P,4,1,50,2134,0,2,478.29999999981374,442,H
2023-04-15T12:15:47Z,8op4movi,serial-reaction-time,1,R,4,1,51,2134,0,1,348.29999999981374,421,L
2023-04-15T12:15:48Z,8op4movi,serial-reaction-time,1,P,4,1,52,2134,0,1,409.79999999981374,211,H
2023-04-15T12:15:48Z,8op4movi,serial-reaction-time,1,R,4,1,53,2134,0,4,535.2999999998137,114,L
2023-04-15T12:15:49Z,8op4movi,serial-reaction-time,1,P,4,1,54,2134,0,3,388.20000000018626,143,H
2023-04-15T12:15:49Z,8op4movi,serial-reaction-time,1,R,4,1,55,2134,0,2,388.5999999996274,432,H
2023-04-15T12:15:50Z,8op4movi,serial-reaction-time,1,P,4,1,56,2134,0,4,425.70000000018626,324,H
2023-04-15T12:15:51Z,8op4movi,serial-reaction-time,1,R,4,1,57,2134,0,3,470.5,243,L
2023-04-15T12:15:51Z,8op4movi,serial-reaction-time,1,P,4,1,58,2134,0,2,440.6000000005588,432,H
2023-04-15T12:15:52Z,8op4movi,serial-reaction-time,1,R,4,1,59,2134,0,2,402.0999999996274,322,L
2023-04-15T12:15:52Z,8op4movi,serial-reaction-time,1,P,4,1,60,2134,0,1,383.79999999981374,221,H
2023-04-15T12:15:53Z,8op4movi,serial-reaction-time,1,R,4,1,61,2134,0,3,404.5,213,L
2023-04-15T12:15:53Z,8op4movi,serial-reaction-time,1,P,4,1,62,2134,0,3,422.70000000018626,133,H
2023-04-15T12:15:54Z,8op4movi,serial-reaction-time,1,R,4,1,63,2134,0,4,351,334,H
2023-04-15T12:15:54Z,8op4movi,serial-reaction-time,1,P,4,1,64,2134,0,4,395.70000000018626,344,H
2023-04-15T12:15:55Z,8op4movi,serial-reaction-time,1,R,4,1,65,2134,0,3,372,443,L
2023-04-15T12:15:55Z,8op4movi,serial-reaction-time,1,P,4,1,66,2134,0,2,479.6000000005588,432,H
2023-04-15T12:15:56Z,8op4movi,serial-reaction-time,NA,R,4,1,67,2134,0,3,394.5999999996274,323,T
2023-04-15T12:15:56Z,8op4movi,serial-reaction-time,1,R,4,0,67,2134,0,3,883.2999999998137,323,T
2023-04-15T12:15:57Z,8op4movi,serial-reaction-time,1,P,4,1,68,2134,0,1,426.5999999996274,231,H
2023-04-15T12:15:57Z,8op4movi,serial-reaction-time,1,R,4,1,69,2134,0,4,363.6000000005588,314,H
2023-04-15T12:15:58Z,8op4movi,serial-reaction-time,1,P,4,1,70,2134,0,3,335.79999999981374,143,H
2023-04-15T12:15:58Z,8op4movi,serial-reaction-time,1,R,4,1,71,2134,0,2,324.90000000037253,432,H
2023-04-15T12:15:59Z,8op4movi,serial-reaction-time,1,P,4,1,72,2134,0,4,378.0999999996274,324,H
2023-04-15T12:15:59Z,8op4movi,serial-reaction-time,1,R,4,1,73,2134,0,4,419.5999999996274,244,L
2023-04-15T12:16:00Z,8op4movi,serial-reaction-time,1,P,4,1,74,2134,0,2,418.4000000003726,442,H
2023-04-15T12:16:00Z,8op4movi,serial-reaction-time,1,R,4,1,75,2134,0,4,346,424,T
2023-04-15T12:16:01Z,8op4movi,serial-reaction-time,1,P,4,1,76,2134,0,1,438.8999999994412,241,H
2023-04-15T12:16:01Z,8op4movi,serial-reaction-time,NA,R,4,1,77,2134,0,4,379.0999999996274,414,T
2023-04-15T12:16:02Z,8op4movi,serial-reaction-time,1,R,4,0,77,2134,0,4,908.9999999990688,414,T
2023-04-15T12:16:03Z,8op4movi,serial-reaction-time,1,P,4,1,78,2134,0,3,445,143,H
2023-04-15T12:16:03Z,8op4movi,serial-reaction-time,1,R,4,1,79,2134,0,4,398.3999999994412,434,T
2023-04-15T12:16:04Z,8op4movi,serial-reaction-time,1,P,4,1,80,2134,0,4,365.70000000018626,344,H
2023-04-15T12:16:09Z,8op4movi,html-keyboard-response,NA,NA,NA,NA,NA,NA,NA,NA,NA,NA,NA
2023-04-15T12:16:10Z,8op4movi,html-keyboard-response,NA,NA,NA,NA,NA,NA,NA,NA,NA,NA,NA
2023-04-15T12:16:11Z,8op4movi,serial-reaction-time,1,R,5,1,1,2134,0,2,484.20000000018626,2,X
2023-04-15T12:16:12Z,8op4movi,serial-reaction-time,1,P,5,1,2,2134,0,2,279.79999999981374,22,X
2023-04-15T12:16:12Z,8op4movi,serial-reaction-time,1,R,5,1,3,2134,0,3,385.70000000018626,223,L
2023-04-15T12:16:13Z,8op4movi,serial-reaction-time,1,P,5,1,4,2134,0,1,412.8999999994412,231,H
2023-04-15T12:16:13Z,8op4movi,serial-reaction-time,1,R,5,1,5,2134,0,3,320.70000000018626,313,T
2023-04-15T12:16:14Z,8op4movi,serial-reaction-time,1,P,5,1,6,2134,0,3,405.5,133,H
2023-04-15T12:16:14Z,8op4movi,serial-reaction-time,1,R,5,1,7,2134,0,2,387.9000000003726,332,L
2023-04-15T12:16:15Z,8op4movi,serial-reaction-time,1,P,5,1,8,2134,0,4,429.6000000005588,324,H
2023-04-15T12:16:16Z,8op4movi,serial-reaction-time,1,R,5,1,9,2134,0,1,517.5,241,H
2023-04-15T12:16:16Z,8op4movi,serial-reaction-time,1,P,5,1,10,2134,0,2,396.79999999981374,412,H
2023-04-15T12:16:17Z,8op4movi,serial-reaction-time,NA,R,5,1,11,2134,0,2,703.2999999998137,122,L
2023-04-15T12:16:17Z,8op4movi,serial-reaction-time,1,R,5,0,11,2134,0,2,1150,122,L
2023-04-15T12:16:18Z,8op4movi,serial-reaction-time,1,P,5,1,12,2134,0,1,515.9000000003725,221,H
2023-04-15T12:16:19Z,8op4movi,serial-reaction-time,1,R,5,1,13,2134,0,1,913.7999999998136,211,H
2023-04-15T12:16:20Z,8op4movi,serial-reaction-time,1,P,5,1,14,2134,0,3,397.70000000018626,113,H
2023-04-15T12:16:20Z,8op4movi,serial-reaction-time,1,R,5,1,15,2134,0,3,336.79999999981374,133,H
2023-04-15T12:16:21Z,8op4movi,serial-reaction-time,1,P,5,1,16,2134,0,4,392.29999999981374,334,H
2023-04-15T12:16:21Z,8op4movi,serial-reaction-time,1,R,5,1,17,2134,0,3,457.29999999981374,343,T
2023-04-15T12:16:22Z,8op4movi,serial-reaction-time,1,P,5,1,18,2134,0,2,391.80000000074506,432,H
2023-04-15T12:16:22Z,8op4movi,serial-reaction-time,1,R,5,1,19,2134,0,1,281.70000000018626,321,L
2023-04-15T12:16:23Z,8op4movi,serial-reaction-time,1,P,5,1,20,2134,0,1,380.6000000005588,211,H
2023-04-15T12:16:23Z,8op4movi,serial-reaction-time,1,R,5,1,21,2134,0,3,368.30000000074506,113,H
2023-04-15T12:16:24Z,8op4movi,serial-reaction-time,1,P,5,1,22,2134,0,3,358.8999999994412,133,H
2023-04-15T12:16:24Z,8op4movi,serial-reaction-time,1,R,5,1,23,2134,0,3,358.8999999994412,333,R
2023-04-15T12:16:25Z,8op4movi,serial-reaction-time,1,P,5,1,24,2134,0,4,434.3999999994412,334,H
2023-04-15T12:16:25Z,8op4movi,serial-reaction-time,1,R,5,1,25,2134,0,4,422.5,344,H
2023-04-15T12:16:26Z,8op4movi,serial-reaction-time,1,P,5,1,26,2134,0,2,542.6000000005588,442,H
2023-04-15T12:16:26Z,8op4movi,serial-reaction-time,1,R,5,1,27,2134,0,1,447.70000000018626,421,L
2023-04-15T12:16:27Z,8op4movi,serial-reaction-time,1,P,5,1,28,2134,0,1,397.70000000018626,211,H
2023-04-15T12:16:27Z,8op4movi,serial-reaction-time,1,R,5,1,29,2134,0,1,339.1000000005588,111,R
2023-04-15T12:16:28Z,8op4movi,serial-reaction-time,1,P,5,1,30,2134,0,3,375.4000000003726,113,H
2023-04-15T12:16:28Z,8op4movi,serial-reaction-time,1,R,5,1,31,2134,0,3,321.90000000037253,133,H
2023-04-15T12:16:29Z,8op4movi,serial-reaction-time,1,P,5,1,32,2134,0,4,360.70000000018626,334,H
2023-04-15T12:16:29Z,8op4movi,serial-reaction-time,1,R,5,1,33,2134,0,3,315.8999999994412,343,T
2023-04-15T12:16:30Z,8op4movi,serial-reaction-time,1,P,5,1,34,2134,0,2,376.5999999996274,432,H
2023-04-15T12:16:30Z,8op4movi,serial-reaction-time,1,R,5,1,35,2134,0,2,442.5,322,L
2023-04-15T12:16:31Z,8op4movi,serial-reaction-time,1,P,5,1,36,2134,0,1,318.90000000037253,221,H
2023-04-15T12:16:31Z,8op4movi,serial-reaction-time,NA,R,5,1,37,2134,0,3,414.20000000018626,213,L
2023-04-15T12:16:32Z,8op4movi,serial-reaction-time,1,R,5,0,37,2134,0,3,842.6000000005588,213,L
2023-04-15T12:16:32Z,8op4movi,serial-reaction-time,1,P,5,1,38,2134,0,3,347,133,H
2023-04-15T12:16:33Z,8op4movi,serial-reaction-time,1,R,5,1,39,2134,0,4,414.30000000074506,334,H
2023-04-15T12:16:33Z,8op4movi,serial-reaction-time,1,P,5,1,40,2134,0,4,372.29999999981374,344,H
2023-04-15T12:16:34Z,8op4movi,serial-reaction-time,1,R,5,1,41,2134,0,1,512.8999999994412,441,L
2023-04-15T12:16:35Z,8op4movi,serial-reaction-time,1,P,5,1,42,2134,0,2,760.2999999998137,412,H
2023-04-15T12:16:35Z,8op4movi,serial-reaction-time,1,R,5,1,43,2134,0,3,453.4000000003726,123,H
2023-04-15T12:16:36Z,8op4movi,serial-reaction-time,1,P,5,1,44,2134,0,1,441.79999999981374,231,H
2023-04-15T12:16:36Z,8op4movi,serial-reaction-time,1,R,5,1,45,2134,0,3,433.5999999996274,313,T
2023-04-15T12:16:37Z,8op4movi,serial-reaction-time,1,P,5,1,46,2134,0,3,565.0999999996275,133,H
2023-04-15T12:16:38Z,8op4movi,serial-reaction-time,1,R,5,1,47,2134,0,3,454.4000000003726,333,R
2023-04-15T12:16:38Z,8op4movi,serial-reaction-time,1,P,5,1,48,2134,0,4,386.70000000018626,334,H
2023-04-15T12:16:39Z,8op4movi,serial-reaction-time,1,R,5,1,49,2134,0,4,312.6000000005588,344,H
2023-04-15T12:16:39Z,8op4movi,serial-reaction-time,NA,P,5,1,50,2134,0,2,518.5,442,H
2023-04-15T12:16:40Z,8op4movi,serial-reaction-time,1,P,5,0,50,2134,0,2,987.9000000003724,442,H
2023-04-15T12:16:40Z,8op4movi,serial-reaction-time,1,R,5,1,51,2134,0,2,361.79999999981374,422,H
2023-04-15T12:16:41Z,8op4movi,serial-reaction-time,1,P,5,1,52,2134,0,1,386.9000000003726,221,H
2023-04-15T12:16:41Z,8op4movi,serial-reaction-time,1,R,5,1,53,2134,0,2,426.3999999994412,212,T
2023-04-15T12:16:42Z,8op4movi,serial-reaction-time,1,P,5,1,54,2134,0,3,323,123,H
2023-04-15T12:16:42Z,8op4movi,serial-reaction-time,1,R,5,1,55,2134,0,4,362,234,L
2023-04-15T12:16:43Z,8op4movi,serial-reaction-time,1,P,5,1,56,2134,0,4,451.4000000003726,344,H
2023-04-15T12:16:43Z,8op4movi,serial-reaction-time,NA,R,5,1,57,2134,0,4,381.69999999925494,444,R
2023-04-15T12:16:43Z,8op4movi,serial-reaction-time,1,R,5,0,57,2134,0,4,381.8999999994412,444,R
2023-04-15T12:16:44Z,8op4movi,serial-reaction-time,1,P,5,1,58,2134,0,2,473.20000000018626,442,H
2023-04-15T12:16:44Z,8op4movi,serial-reaction-time,1,R,5,1,59,2134,0,2,359.59999999962747,422,H
2023-04-15T12:16:45Z,8op4movi,serial-reaction-time,1,P,5,1,60,2134,0,1,528.9000000003725,221,H
2023-04-15T12:16:46Z,8op4movi,serial-reaction-time,1,R,5,1,61,2134,0,2,444.70000000018626,212,T
2023-04-15T12:16:46Z,8op4movi,serial-reaction-time,1,P,5,1,62,2134,0,3,425.5999999996274,123,H
2023-04-15T12:16:47Z,8op4movi,serial-reaction-time,1,R,5,1,63,2134,0,2,489.69999999925494,232,T
2023-04-15T12:16:47Z,8op4movi,serial-reaction-time,1,P,5,1,64,2134,0,4,364.4000000003726,324,H
2023-04-15T12:16:48Z,8op4movi,serial-reaction-time,1,R,5,1,65,2134,0,4,373.8999999994412,244,L
2023-04-15T12:16:48Z,8op4movi,serial-reaction-time,1,P,5,1,66,2134,0,2,365.1000000005588,442,H
2023-04-15T12:16:49Z,8op4movi,serial-reaction-time,1,R,5,1,67,2134,0,4,348.40000000037253,424,T
2023-04-15T12:16:49Z,8op4movi,serial-reaction-time,1,P,5,1,68,2134,0,1,386.20000000018626,241,H
2023-04-15T12:16:50Z,8op4movi,serial-reaction-time,1,R,5,1,69,2134,0,4,467.4000000003726,414,T
2023-04-15T12:16:50Z,8op4movi,serial-reaction-time,1,P,5,1,70,2134,0,3,389.9000000003726,143,H
2023-04-15T12:16:51Z,8op4movi,serial-reaction-time,1,R,5,1,71,2134,0,4,528.1999999992549,434,T
2023-04-15T12:16:52Z,8op4movi,serial-reaction-time,1,P,5,1,72,2134,0,4,387,344,H
2023-04-15T12:16:52Z,8op4movi,serial-reaction-time,1,R,5,1,73,2134,0,4,379.29999999981374,444,R
2023-04-15T12:16:53Z,8op4movi,serial-reaction-time,1,P,5,1,74,2134,0,2,502.69999999925494,442,H
2023-04-15T12:16:53Z,8op4movi,serial-reaction-time,1,R,5,1,75,2134,0,4,413,424,T
2023-04-15T12:16:54Z,8op4movi,serial-reaction-time,1,P,5,1,76,2134,0,1,618.2000000001863,241,H
2023-04-15T12:16:55Z,8op4movi,serial-reaction-time,1,R,5,1,77,2134,0,1,385.4000000003726,411,L
2023-04-15T12:16:55Z,8op4movi,serial-reaction-time,1,P,5,1,78,2134,0,3,417.6000000005588,113,H
2023-04-15T12:16:56Z,8op4movi,serial-reaction-time,1,R,5,1,79,2134,0,4,337.69999999925494,134,L
2023-04-15T12:16:56Z,8op4movi,serial-reaction-time,1,P,5,1,80,2134,0,4,429.70000000018626,344,H
2023-04-15T12:17:01Z,8op4movi,html-keyboard-response,NA,NA,NA,NA,NA,NA,NA,NA,NA,NA,NA
2023-04-15T12:17:04Z,8op4movi,html-keyboard-response,NA,NA,NA,NA,NA,NA,NA,NA,NA,NA,NA
2023-04-15T12:17:05Z,8op4movi,fullscreen,NA,NA,NA,NA,NA,NA,NA,NA,NA,NA,NA
2023-04-15T14:01:12Z,bjgjzktt,fullscreen,NA,NA,NA,NA,NA,NA,NA,NA,NA,NA,NA
2023-04-15T14:01:25Z,bjgjzktt,html-keyboard-response,NA,NA,NA,NA,NA,NA,NA,NA,NA,NA,NA
2023-04-15T14:01:27Z,bjgjzktt,serial-reaction-time,1,R,1,1,1,3142,0,2,348,2,X
2023-04-15T14:01:27Z,bjgjzktt,serial-reaction-time,1,P,1,1,2,3142,0,3,320,23,X
2023-04-15T14:01:28Z,bjgjzktt,serial-reaction-time,1,R,1,1,3,3142,0,2,272,232,T
2023-04-15T14:01:28Z,bjgjzktt,serial-reaction-time,1,P,1,1,4,3142,0,1,354,321,H
2023-04-15T14:01:29Z,bjgjzktt,serial-reaction-time,1,R,1,1,5,3142,0,1,345,211,L
2023-04-15T14:01:29Z,bjgjzktt,serial-reaction-time,1,P,1,1,6,3142,0,4,299,114,H
2023-04-15T14:01:29Z,bjgjzktt,serial-reaction-time,1,R,1,1,7,3142,0,2,304,142,L
2023-04-15T14:01:30Z,bjgjzktt,serial-reaction-time,1,P,1,1,8,3142,0,2,301,422,H
2023-04-15T14:01:30Z,bjgjzktt,serial-reaction-time,1,R,1,1,9,3142,0,3,321,223,H
2023-04-15T14:01:31Z,bjgjzktt,serial-reaction-time,1,P,1,1,10,3142,0,3,327,233,H
2023-04-15T14:01:31Z,bjgjzktt,serial-reaction-time,1,R,1,1,11,3142,0,1,326,331,H
2023-04-15T14:01:32Z,bjgjzktt,serial-reaction-time,1,P,1,1,12,3142,0,1,294,311,H
2023-04-15T14:01:32Z,bjgjzktt,serial-reaction-time,1,R,1,1,13,3142,0,4,314,114,H
2023-04-15T14:01:33Z,bjgjzktt,serial-reaction-time,1,P,1,1,14,3142,0,4,348,144,H
2023-04-15T14:01:33Z,bjgjzktt,serial-reaction-time,1,R,1,1,15,3142,0,2,294,442,H
2023-04-15T14:01:33Z,bjgjzktt,serial-reaction-time,1,P,1,1,16,3142,0,2,302,422,H
2023-04-15T14:01:34Z,bjgjzktt,serial-reaction-time,NA,R,1,1,17,3142,0,1,305,221,L
2023-04-15T14:01:34Z,bjgjzktt,serial-reaction-time,1,R,1,0,17,3142,0,1,490,221,L
2023-04-15T14:01:35Z,bjgjzktt,serial-reaction-time,1,P,1,1,18,3142,0,3,385,213,H
2023-04-15T14:01:35Z,bjgjzktt,serial-reaction-time,1,R,1,1,19,3142,0,4,344,134,H
2023-04-15T14:01:36Z,bjgjzktt,serial-reaction-time,1,P,1,1,20,3142,0,1,354,341,H
2023-04-15T14:01:36Z,bjgjzktt,serial-reaction-time,NA,R,1,1,21,3142,0,2,256,412,H
2023-04-15T14:01:36Z,bjgjzktt,serial-reaction-time,1,R,1,0,21,3142,0,2,499,412,H
2023-04-15T14:01:37Z,bjgjzktt,serial-reaction-time,1,P,1,1,22,3142,0,4,365,124,H
2023-04-15T14:01:37Z,bjgjzktt,serial-reaction-time,1,R,1,1,23,3142,0,1,414,241,L
2023-04-15T14:01:38Z,bjgjzktt,serial-reaction-time,NA,P,1,1,24,3142,0,2,397,412,H
2023-04-15T14:01:38Z,bjgjzktt,serial-reaction-time,1,P,1,0,24,3142,0,2,451,412,H
2023-04-15T14:01:38Z,bjgjzktt,serial-reaction-time,1,R,1,1,25,3142,0,3,469,123,L
2023-04-15T14:01:39Z,bjgjzktt,serial-reaction-time,1,P,1,1,26,3142,0,3,338,233,H
2023-04-15T14:01:39Z,bjgjzktt,serial-reaction-time,1,R,1,1,27,3142,0,3,320,333,R
2023-04-15T14:01:40Z,bjgjzktt,serial-reaction-time,NA,P,1,1,28,3142,0,1,314,331,H
2023-04-15T14:01:40Z,bjgjzktt,serial-reaction-time,1,P,1,0,28,3142,0,1,372,331,H
2023-04-15T14:01:40Z,bjgjzktt,serial-reaction-time,1,R,1,1,29,3142,0,2,405,312,L
2023-04-15T14:01:41Z,bjgjzktt,serial-reaction-time,1,P,1,1,30,3142,0,4,310,124,H
2023-04-15T14:01:41Z,bjgjzktt,serial-reaction-time,1,R,1,1,31,3142,0,1,399,241,L
2023-04-15T14:01:42Z,bjgjzktt,serial-reaction-time,1,P,1,1,32,3142,0,2,326,412,H
2023-04-15T14:01:42Z,bjgjzktt,serial-reaction-time,1,R,1,1,33,3142,0,2,324,122,L
2023-04-15T14:01:43Z,bjgjzktt,serial-reaction-time,1,P,1,1,34,3142,0,3,310,223,H
2023-04-15T14:01:43Z,bjgjzktt,serial-reaction-time,1,R,1,1,35,3142,0,4,385,234,L
2023-04-15T14:01:44Z,bjgjzktt,serial-reaction-time,1,P,1,1,36,3142,0,1,384,341,H
2023-04-15T14:01:44Z,bjgjzktt,serial-reaction-time,1,R,1,1,37,3142,0,1,312,411,L
2023-04-15T14:01:45Z,bjgjzktt,serial-reaction-time,1,P,1,1,38,3142,0,4,333,114,H
2023-04-15T14:01:45Z,bjgjzktt,serial-reaction-time,1,R,1,1,39,3142,0,1,366,141,T
2023-04-15T14:01:46Z,bjgjzktt,serial-reaction-time,1,P,1,1,40,3142,0,2,345,412,H
2023-04-15T14:01:46Z,bjgjzktt,serial-reaction-time,1,R,1,1,41,3142,0,2,271,122,L
2023-04-15T14:01:47Z,bjgjzktt,serial-reaction-time,1,P,1,1,42,3142,0,3,323,223,H
2023-04-15T14:01:47Z,bjgjzktt,serial-reaction-time,NA,R,1,1,43,3142,0,4,234,234,L
2023-04-15T14:01:47Z,bjgjzktt,serial-reaction-time,1,R,1,0,43,3142,0,4,437,234,L
2023-04-15T14:01:48Z,bjgjzktt,serial-reaction-time,NA,P,1,1,44,3142,0,1,238,341,H
2023-04-15T14:01:48Z,bjgjzktt,serial-reaction-time,1,P,1,0,44,3142,0,1,331,341,H
2023-04-15T14:01:48Z,bjgjzktt,serial-reaction-time,NA,R,1,1,45,3142,0,2,376,412,H
2023-04-15T14:01:48Z,bjgjzktt,serial-reaction-time,1,R,1,0,45,3142,0,2,466,412,H
2023-04-15T14:01:49Z,bjgjzktt,serial-reaction-time,NA,P,1,1,46,3142,0,4,163,124,H
2023-04-15T14:01:49Z,bjgjzktt,serial-reaction-time,1,P,1,0,46,3142,0,4,354,124,H
2023-04-15T14:01:49Z,bjgjzktt,serial-reaction-time,1,R,1,1,47,3142,0,2,350,242,T
2023-04-15T14:01:50Z,bjgjzktt,serial-reaction-time,1,P,1,1,48,3142,0,2,257,422,H
2023-04-15T14:01:50Z,bjgjzktt,serial-reaction-time,1,R,1,1,49,3142,0,4,311,224,L
2023-04-15T14:01:51Z,bjgjzktt,serial-reaction-time,1,P,1,1,50,3142,0,3,417,243,H
2023-04-15T14:01:51Z,bjgjzktt,serial-reaction-time,1,R,1,1,51,3142,0,1,535,431,L
2023-04-15T14:01:52Z,bjgjzktt,serial-reaction-time,1,P,1,1,52,3142,0,1,327,311,H
2023-04-15T14:01:52Z,bjgjzktt,serial-reaction-time,1,R,1,1,53,3142,0,4,309,114,H
2023-04-15T14:01:53Z,bjgjzktt,serial-reaction-time,1,P,1,1,54,3142,0,4,309,144,H
2023-04-15T14:01:53Z,bjgjzktt,serial-reaction-time,1,R,1,1,55,3142,0,2,268,442,H
2023-04-15T14:01:53Z,bjgjzktt,serial-reaction-time,1,P,1,1,56,3142,0,2,292,422,H
2023-04-15T14:01:54Z,bjgjzktt,serial-reaction-time,1,R,1,1,57,3142,0,4,275,224,L
2023-04-15T14:01:54Z,bjgjzktt,serial-reaction-time,NA,P,1,1,58,3142,0,3,358,243,H
2023-04-15T14:01:54Z,bjgjzktt,serial-reaction-time,1,P,1,0,58,3142,0,3,451,243,H
2023-04-15T14:01:55Z,bjgjzktt,serial-reaction-time,NA,R,1,1,59,3142,0,1,317,431,L
2023-04-15T14:01:55Z,bjgjzktt,serial-reaction-time,1,R,1,0,59,3142,0,1,511,431,L
2023-04-15T14:01:56Z,bjgjzktt,serial-reaction-time,1,P,1,1,60,3142,0,1,332,311,H
2023-04-15T14:01:56Z,bjgjzktt,serial-reaction-time,NA,R,1,1,61,3142,0,4,247,114,H
2023-04-15T14:01:56Z,bjgjzktt,serial-reaction-time,1,R,1,0,61,3142,0,4,413,114,H
2023-04-15T14:01:56Z,bjgjzktt,serial-reaction-time,1,P,1,1,62,3142,0,4,162,144,H
2023-04-15T14:01:57Z,bjgjzktt,serial-reaction-time,1,R,1,1,63,3142,0,2,320,442,H
2023-04-15T14:01:57Z,bjgjzktt,serial-reaction-time,1,P,1,1,64,3142,0,2,267,422,H
2023-04-15T14:01:58Z,bjgjzktt,serial-reaction-time,NA,R,1,1,65,3142,0,3,327,223,H
2023-04-15T14:01:58Z,bjgjzktt,serial-reaction-time,1,R,1,0,65,3142,0,3,412,223,H
2023-04-15T14:01:58Z,bjgjzktt,serial-reaction-time,1,P,1,1,66,3142,0,3,36,233,H
2023-04-15T14:01:59Z,bjgjzktt,serial-reaction-time,1,R,1,1,67,3142,0,1,350,331,H
2023-04-15T14:01:59Z,bjgjzktt,serial-reaction-time,1,P,1,1,68,3142,0,1,232,311,H
2023-04-15T14:01:59Z,bjgjzktt,serial-reaction-time,1,R,1,1,69,3142,0,4,333,114,H
2023-04-15T14:02:00Z,bjgjzktt,serial-reaction-time,1,P,1,1,70,3142,0,4,257,144,H
2023-04-15T14:02:00Z,bjgjzktt,serial-reaction-time,1,R,1,1,71,3142,0,3,372,443,L
2023-04-15T14:02:01Z,bjgjzktt,serial-reaction-time,1,P,1,1,72,3142,0,2,405,432,H
2023-04-15T14:02:01Z,bjgjzktt,serial-reaction-time,1,R,1,1,73,3142,0,3,349,323,T
2023-04-15T14:02:02Z,bjgjzktt,serial-reaction-time,1,P,1,1,74,3142,0,3,354,233,H
2023-04-15T14:02:02Z,bjgjzktt,serial-reaction-time,1,R,1,1,75,3142,0,2,341,332,L
2023-04-15T14:02:03Z,bjgjzktt,serial-reaction-time,1,P,1,1,76,3142,0,1,432,321,H
2023-04-15T14:02:03Z,bjgjzktt,serial-reaction-time,NA,R,1,1,77,3142,0,2,225,212,T
2023-04-15T14:02:03Z,bjgjzktt,serial-reaction-time,1,R,1,0,77,3142,0,2,466,212,T
2023-04-15T14:02:04Z,bjgjzktt,serial-reaction-time,1,P,1,1,78,3142,0,4,381,124,H
2023-04-15T14:02:04Z,bjgjzktt,serial-reaction-time,1,R,1,1,79,3142,0,3,445,243,H
2023-04-15T14:02:05Z,bjgjzktt,serial-reaction-time,1,P,1,1,80,3142,0,2,570,432,H
2023-04-15T14:02:10Z,bjgjzktt,html-keyboard-response,NA,NA,NA,NA,NA,NA,NA,NA,NA,NA,NA
2023-04-15T14:02:11Z,bjgjzktt,html-keyboard-response,NA,NA,NA,NA,NA,NA,NA,NA,NA,NA,NA
2023-04-15T14:02:12Z,bjgjzktt,serial-reaction-time,1,R,2,1,1,3142,0,4,333,4,X
2023-04-15T14:02:13Z,bjgjzktt,serial-reaction-time,NA,P,2,1,2,3142,0,3,229,43,X
2023-04-15T14:02:13Z,bjgjzktt,serial-reaction-time,NA,P,2,0,2,3142,0,3,325,43,X
2023-04-15T14:02:13Z,bjgjzktt,serial-reaction-time,1,P,2,0,2,3142,0,3,452,43,X
2023-04-15T14:02:13Z,bjgjzktt,serial-reaction-time,1,R,2,1,3,3142,0,3,300,433,L
2023-04-15T14:02:14Z,bjgjzktt,serial-reaction-time,1,P,2,1,4,3142,0,1,300,331,H
2023-04-15T14:02:14Z,bjgjzktt,serial-reaction-time,1,R,2,1,5,3142,0,1,226,311,H
2023-04-15T14:02:15Z,bjgjzktt,serial-reaction-time,1,P,2,1,6,3142,0,4,328,114,H
2023-04-15T14:02:15Z,bjgjzktt,serial-reaction-time,NA,R,2,1,7,3142,0,1,352,141,T
2023-04-15T14:02:15Z,bjgjzktt,serial-reaction-time,1,R,2,0,7,3142,0,1,421,141,T
2023-04-15T14:02:15Z,bjgjzktt,serial-reaction-time,NA,P,2,1,8,3142,0,2,178,412,H
2023-04-15T14:02:16Z,bjgjzktt,serial-reaction-time,1,P,2,0,8,3142,0,2,514,412,H
2023-04-15T14:02:16Z,bjgjzktt,serial-reaction-time,1,R,2,1,9,3142,0,2,256,122,L
2023-04-15T14:02:17Z,bjgjzktt,serial-reaction-time,1,P,2,1,10,3142,0,3,299,223,H
2023-04-15T14:02:17Z,bjgjzktt,serial-reaction-time,1,R,2,1,11,3142,0,4,356,234,L
2023-04-15T14:02:18Z,bjgjzktt,serial-reaction-time,1,P,2,1,12,3142,0,1,344,341,H
2023-04-15T14:02:18Z,bjgjzktt,serial-reaction-time,1,R,2,1,13,3142,0,1,228,411,L
2023-04-15T14:02:18Z,bjgjzktt,serial-reaction-time,1,P,2,1,14,3142,0,4,288,114,H
2023-04-15T14:02:19Z,bjgjzktt,serial-reaction-time,1,R,2,1,15,3142,0,2,284,142,L
2023-04-15T14:02:19Z,bjgjzktt,serial-reaction-time,1,P,2,1,16,3142,0,2,261,422,H
2023-04-15T14:02:20Z,bjgjzktt,serial-reaction-time,1,R,2,1,17,3142,0,1,333,221,L
2023-04-15T14:02:20Z,bjgjzktt,serial-reaction-time,1,P,2,1,18,3142,0,3,333,213,H
2023-04-15T14:02:21Z,bjgjzktt,serial-reaction-time,1,R,2,1,19,3142,0,4,342,134,H
2023-04-15T14:02:21Z,bjgjzktt,serial-reaction-time,NA,P,2,1,20,3142,0,1,262,341,H
2023-04-15T14:02:21Z,bjgjzktt,serial-reaction-time,1,P,2,0,20,3142,0,1,589,341,H
2023-04-15T14:02:22Z,bjgjzktt,serial-reaction-time,1,R,2,1,21,3142,0,3,410,413,L
2023-04-15T14:02:22Z,bjgjzktt,serial-reaction-time,1,P,2,1,22,3142,0,4,393,134,H
2023-04-15T14:02:23Z,bjgjzktt,serial-reaction-time,1,R,2,1,23,3142,0,1,294,341,H
2023-04-15T14:02:23Z,bjgjzktt,serial-reaction-time,NA,P,2,1,24,3142,0,2,225,412,H
2023-04-15T14:02:23Z,bjgjzktt,serial-reaction-time,1,P,2,0,24,3142,0,2,449,412,H
2023-04-15T14:02:24Z,bjgjzktt,serial-reaction-time,1,R,2,1,25,3142,0,1,348,121,T
2023-04-15T14:02:24Z,bjgjzktt,serial-reaction-time,1,P,2,1,26,3142,0,3,390,213,H
2023-04-15T14:02:25Z,bjgjzktt,serial-reaction-time,1,R,2,1,27,3142,0,4,458,134,H
2023-04-15T14:02:26Z,bjgjzktt,serial-reaction-time,1,P,2,1,28,3142,0,1,543,341,H
2023-04-15T14:02:26Z,bjgjzktt,serial-reaction-time,1,R,2,1,29,3142,0,3,530,413,L
2023-04-15T14:02:27Z,bjgjzktt,serial-reaction-time,NA,P,2,1,30,3142,0,4,343,134,H
2023-04-15T14:02:27Z,bjgjzktt,serial-reaction-time,1,P,2,0,30,3142,0,4,432,134,H
2023-04-15T14:02:27Z,bjgjzktt,serial-reaction-time,NA,R,2,1,31,3142,0,2,71,342,L
2023-04-15T14:02:27Z,bjgjzktt,serial-reaction-time,NA,R,2,0,31,3142,0,2,337,342,L
2023-04-15T14:02:28Z,bjgjzktt,serial-reaction-time,1,R,2,0,31,3142,0,2,448,342,L
2023-04-15T14:02:28Z,bjgjzktt,serial-reaction-time,1,P,2,1,32,3142,0,2,276,422,H
2023-04-15T14:02:28Z,bjgjzktt,serial-reaction-time,1,R,2,1,33,3142,0,4,278,224,L
2023-04-15T14:02:29Z,bjgjzktt,serial-reaction-time,NA,P,2,1,34,3142,0,3,357,243,H
2023-04-15T14:02:29Z,bjgjzktt,serial-reaction-time,1,P,2,0,34,3142,0,3,412,243,H
2023-04-15T14:02:29Z,bjgjzktt,serial-reaction-time,NA,R,2,1,35,3142,0,1,202,431,L
2023-04-15T14:02:29Z,bjgjzktt,serial-reaction-time,1,R,2,0,35,3142,0,1,388,431,L
2023-04-15T14:02:30Z,bjgjzktt,serial-reaction-time,1,P,2,1,36,3142,0,1,226,311,H
2023-04-15T14:02:30Z,bjgjzktt,serial-reaction-time,1,R,2,1,37,3142,0,1,291,111,R
2023-04-15T14:02:31Z,bjgjzktt,serial-reaction-time,1,P,2,1,38,3142,0,4,276,114,H
2023-04-15T14:02:31Z,bjgjzktt,serial-reaction-time,1,R,2,1,39,3142,0,4,253,144,H
2023-04-15T14:02:31Z,bjgjzktt,serial-reaction-time,1,P,2,1,40,3142,0,2,272,442,H
2023-04-15T14:02:32Z,bjgjzktt,serial-reaction-time,1,R,2,1,41,3142,0,4,355,424,T
2023-04-15T14:02:32Z,bjgjzktt,serial-reaction-time,NA,P,2,1,42,3142,0,3,403,243,H
2023-04-15T14:02:33Z,bjgjzktt,serial-reaction-time,1,P,2,0,42,3142,0,3,439,243,H
2023-04-15T14:02:33Z,bjgjzktt,serial-reaction-time,1,R,2,1,43,3142,0,3,286,433,L
2023-04-15T14:02:33Z,bjgjzktt,serial-reaction-time,1,P,2,1,44,3142,0,1,308,331,H
2023-04-15T14:02:34Z,bjgjzktt,serial-reaction-time,1,R,2,1,45,3142,0,2,431,312,L
2023-04-15T14:02:34Z,bjgjzktt,serial-reaction-time,1,P,2,1,46,3142,0,4,311,124,H
2023-04-15T14:02:35Z,bjgjzktt,serial-reaction-time,1,R,2,1,47,3142,0,1,426,241,L
2023-04-15T14:02:35Z,bjgjzktt,serial-reaction-time,NA,P,2,1,48,3142,0,2,376,412,H
2023-04-15T14:02:36Z,bjgjzktt,serial-reaction-time,1,P,2,0,48,3142,0,2,669,412,H
2023-04-15T14:02:36Z,bjgjzktt,serial-reaction-time,1,R,2,1,49,3142,0,4,374,124,H
2023-04-15T14:02:37Z,bjgjzktt,serial-reaction-time,NA,P,2,1,50,3142,0,3,381,243,H
2023-04-15T14:02:37Z,bjgjzktt,serial-reaction-time,1,P,2,0,50,3142,0,3,630,243,H
2023-04-15T14:02:38Z,bjgjzktt,serial-reaction-time,1,R,2,1,51,3142,0,2,376,432,H
2023-04-15T14:02:38Z,bjgjzktt,serial-reaction-time,1,P,2,1,52,3142,0,1,501,321,H
2023-04-15T14:02:39Z,bjgjzktt,serial-reaction-time,1,R,2,1,53,3142,0,3,700,213,H
2023-04-15T14:02:40Z,bjgjzktt,serial-reaction-time,1,P,2,1,54,3142,0,4,512,134,H
2023-04-15T14:02:40Z,bjgjzktt,serial-reaction-time,NA,R,2,1,55,3142,0,2,353,342,L
2023-04-15T14:02:40Z,bjgjzktt,serial-reaction-time,1,R,2,0,55,3142,0,2,359,342,L
2023-04-15T14:02:41Z,bjgjzktt,serial-reaction-time,1,P,2,1,56,3142,0,2,302,422,H
2023-04-15T14:02:41Z,bjgjzktt,serial-reaction-time,1,R,2,1,57,3142,0,2,327,222,R
2023-04-15T14:02:42Z,bjgjzktt,serial-reaction-time,1,P,2,1,58,3142,0,3,313,223,H
2023-04-15T14:02:42Z,bjgjzktt,serial-reaction-time,1,R,2,1,59,3142,0,1,377,231,L
2023-04-15T14:02:43Z,bjgjzktt,serial-reaction-time,1,P,2,1,60,3142,0,1,332,311,H
2023-04-15T14:02:43Z,bjgjzktt,serial-reaction-time,1,R,2,1,61,3142,0,2,383,112,L
2023-04-15T14:02:44Z,bjgjzktt,serial-reaction-time,1,P,2,1,62,3142,0,4,384,124,H
2023-04-15T14:02:44Z,bjgjzktt,serial-reaction-time,1,R,2,1,63,3142,0,3,566,243,H
2023-04-15T14:02:45Z,bjgjzktt,serial-reaction-time,1,P,2,1,64,3142,0,2,475,432,H
2023-04-15T14:02:46Z,bjgjzktt,serial-reaction-time,NA,R,2,1,65,3142,0,1,553,321,H
2023-04-15T14:02:46Z,bjgjzktt,serial-reaction-time,1,R,2,0,65,3142,0,1,770,321,H
2023-04-15T14:02:46Z,bjgjzktt,serial-reaction-time,NA,P,2,1,66,3142,0,3,214,213,H
2023-04-15T14:02:46Z,bjgjzktt,serial-reaction-time,1,P,2,0,66,3142,0,3,378,213,H
2023-04-15T14:02:47Z,bjgjzktt,serial-reaction-time,1,R,2,1,67,3142,0,1,375,131,T
2023-04-15T14:02:47Z,bjgjzktt,serial-reaction-time,1,P,2,1,68,3142,0,1,228,311,H
2023-04-15T14:02:48Z,bjgjzktt,serial-reaction-time,NA,R,2,1,69,3142,0,2,292,112,L
2023-04-15T14:02:48Z,bjgjzktt,serial-reaction-time,1,R,2,0,69,3142,0,2,494,112,L
2023-04-15T14:02:48Z,bjgjzktt,serial-reaction-time,1,P,2,1,70,3142,0,4,338,124,H
2023-04-15T14:02:49Z,bjgjzktt,serial-reaction-time,NA,R,2,1,71,3142,0,1,329,241,L
2023-04-15T14:02:49Z,bjgjzktt,serial-reaction-time,1,R,2,0,71,3142,0,1,458,241,L
2023-04-15T14:02:49Z,bjgjzktt,serial-reaction-time,NA,P,2,1,72,3142,0,2,164,412,H
2023-04-15T14:02:49Z,bjgjzktt,serial-reaction-time,1,P,2,0,72,3142,0,2,390,412,H
2023-04-15T14:02:50Z,bjgjzktt,serial-reaction-time,1,R,2,1,73,3142,0,2,245,122,L
2023-04-15T14:02:50Z,bjgjzktt,serial-reaction-time,1,P,2,1,74,3142,0,3,306,223,H
2023-04-15T14:02:51Z,bjgjzktt,serial-reaction-time,1,R,2,1,75,3142,0,4,419,234,L
2023-04-15T14:02:51Z,bjgjzktt,serial-reaction-time,1,P,2,1,76,3142,0,1,378,341,H
2023-04-15T14:02:52Z,bjgjzktt,serial-reaction-time,1,R,2,1,77,3142,0,3,359,413,L
2023-04-15T14:02:52Z,bjgjzktt,serial-reaction-time,1,P,2,1,78,3142,0,4,434,134,H
2023-04-15T14:02:53Z,bjgjzktt,serial-reaction-time,1,R,2,1,79,3142,0,4,239,344,L
2023-04-15T14:02:53Z,bjgjzktt,serial-reaction-time,1,P,2,1,80,3142,0,2,321,442,H
2023-04-15T14:02:58Z,bjgjzktt,html-keyboard-response,NA,NA,NA,NA,NA,NA,NA,NA,NA,NA,NA
2023-04-15T14:03:00Z,bjgjzktt,html-keyboard-response,NA,NA,NA,NA,NA,NA,NA,NA,NA,NA,NA
2023-04-15T14:03:01Z,bjgjzktt,serial-reaction-time,NA,R,3,1,1,3142,0,4,121,4,X
