datetime,id,trial_type,correct,p_or_r,block,first_response,trial_number,sequence,is_practice,correct_pos,cumulative_rt,actual_triplet,triplet_type
2023-04-11T22:45:16Z,qh2z8vvu,fullscreen,NA,NA,NA,NA,NA,NA,NA,NA,NA,NA,NA
2023-04-11T22:45:21Z,qh2z8vvu,html-keyboard-response,NA,NA,NA,NA,NA,NA,NA,NA,NA,NA,NA
2023-04-11T22:45:22Z,qh2z8vvu,serial-reaction-time,1,R,1,1,1,2314,0,3,466.199999988079,3,X
2023-04-11T22:45:23Z,qh2z8vvu,serial-reaction-time,1,P,1,1,2,2314,0,2,494.300000011921,32,X
2023-04-11T22:45:23Z,qh2z8vvu,serial-reaction-time,1,R,1,1,3,2314,0,4,464.10000002384186,324,L
2023-04-11T22:45:24Z,qh2z8vvu,serial-reaction-time,1,P,1,1,4,2314,0,3,481.39999997615814,243,H
2023-04-11T22:45:25Z,qh2z8vvu,serial-reaction-time,1,R,1,1,5,2314,0,1,460,431,L
2023-04-11T22:45:25Z,qh2z8vvu,serial-reaction-time,1,P,1,1,6,2314,0,1,410.300000011921,311,H
2023-04-11T22:45:26Z,qh2z8vvu,serial-reaction-time,1,R,1,1,7,2314,0,2,427.5999999642372,112,L
2023-04-11T22:45:26Z,qh2z8vvu,serial-reaction-time,1,P,1,1,8,2314,0,4,512.5,124,H
2023-04-11T22:45:27Z,qh2z8vvu,serial-reaction-time,1,R,1,1,9,2314,0,1,523.8000000119209,241,L
2023-04-11T22:45:28Z,qh2z8vvu,serial-reaction-time,1,P,1,1,10,2314,0,2,394,412,H
2023-04-11T22:45:28Z,qh2z8vvu,serial-reaction-time,1,R,1,1,11,2314,0,3,408.800000011921,123,L
2023-04-11T22:45:29Z,qh2z8vvu,serial-reaction-time,1,P,1,1,12,2314,0,3,342.4000000357628,233,H
2023-04-11T22:45:29Z,qh2z8vvu,serial-reaction-time,1,R,1,1,13,2314,0,3,354.60000002384186,333,R
2023-04-11T22:45:30Z,qh2z8vvu,serial-reaction-time,1,P,1,1,14,2314,0,1,472.9000000357628,331,H
2023-04-11T22:45:30Z,qh2z8vvu,serial-reaction-time,1,R,1,1,15,2314,0,3,442.39999997615814,313,T
2023-04-11T22:45:31Z,qh2z8vvu,serial-reaction-time,1,P,1,1,16,2314,0,4,417.0999999642372,134,H
2023-04-11T22:45:31Z,qh2z8vvu,serial-reaction-time,1,R,1,1,17,2314,0,4,420.7000000476837,344,L
2023-04-11T22:45:32Z,qh2z8vvu,serial-reaction-time,1,P,1,1,18,2314,0,2,416.10000002384186,442,H
2023-04-11T22:45:33Z,qh2z8vvu,serial-reaction-time,1,R,1,1,19,2314,0,3,424.10000002384186,423,L
2023-04-11T22:45:33Z,qh2z8vvu,serial-reaction-time,1,P,1,1,20,2314,0,3,310,233,H
2023-04-11T22:45:34Z,qh2z8vvu,serial-reaction-time,1,R,1,1,21,2314,0,4,484.39999997615814,334,L
2023-04-11T22:45:34Z,qh2z8vvu,serial-reaction-time,1,P,1,1,22,2314,0,1,372.9000000357628,341,H
2023-04-11T22:45:35Z,qh2z8vvu,serial-reaction-time,1,R,1,1,23,2314,0,1,416.60000002384186,411,L
2023-04-11T22:45:35Z,qh2z8vvu,serial-reaction-time,1,P,1,1,24,2314,0,4,450.60000002384186,114,H
2023-04-11T22:45:36Z,qh2z8vvu,serial-reaction-time,1,R,1,1,25,2314,0,1,465.60000002384186,141,T
2023-04-11T22:45:36Z,qh2z8vvu,serial-reaction-time,1,P,1,1,26,2314,0,2,456.7000000476837,412,H
2023-04-11T22:45:37Z,qh2z8vvu,serial-reaction-time,1,R,1,1,27,2314,0,2,386.60000002384186,122,L
2023-04-11T22:45:37Z,qh2z8vvu,serial-reaction-time,1,P,1,1,28,2314,0,3,361.60000002384186,223,H
2023-04-11T22:45:38Z,qh2z8vvu,serial-reaction-time,1,R,1,1,29,2314,0,4,406.10000002384186,234,L
2023-04-11T22:45:38Z,qh2z8vvu,serial-reaction-time,1,P,1,1,30,2314,0,1,332.5,341,H
2023-04-11T22:45:39Z,qh2z8vvu,serial-reaction-time,NA,R,1,1,31,2314,0,4,352.30000001192093,414,T
2023-04-11T22:45:39Z,qh2z8vvu,serial-reaction-time,1,R,1,0,31,2314,0,4,733.3000000119209,414,T
2023-04-11T22:45:40Z,qh2z8vvu,serial-reaction-time,1,P,1,1,32,2314,0,4,337.60000002384186,144,H
2023-04-11T22:45:40Z,qh2z8vvu,serial-reaction-time,1,R,1,1,33,2314,0,4,341,444,R
2023-04-11T22:45:41Z,qh2z8vvu,serial-reaction-time,NA,P,1,1,34,2314,0,2,298,442,H
2023-04-11T22:45:41Z,qh2z8vvu,serial-reaction-time,1,P,1,0,34,2314,0,2,490.4000000357628,442,H
2023-04-11T22:45:41Z,qh2z8vvu,serial-reaction-time,1,R,1,1,35,2314,0,1,427.5,421,L
2023-04-11T22:45:42Z,qh2z8vvu,serial-reaction-time,NA,P,1,1,36,2314,0,3,346.30000001192093,213,H
2023-04-11T22:45:42Z,qh2z8vvu,serial-reaction-time,1,P,1,0,36,2314,0,3,598.1000000238419,213,H
2023-04-11T22:45:43Z,qh2z8vvu,serial-reaction-time,1,R,1,1,37,2314,0,2,395.199999988079,132,L
2023-04-11T22:45:43Z,qh2z8vvu,serial-reaction-time,1,P,1,1,38,2314,0,1,436.2999999523163,321,H
2023-04-11T22:45:44Z,qh2z8vvu,serial-reaction-time,1,R,1,1,39,2314,0,1,344.5,211,L
2023-04-11T22:45:44Z,qh2z8vvu,serial-reaction-time,1,P,1,1,40,2314,0,4,314.69999998807907,114,H
2023-04-11T22:45:45Z,qh2z8vvu,serial-reaction-time,1,R,1,1,41,2314,0,2,307.30000001192093,142,L
2023-04-11T22:45:45Z,qh2z8vvu,serial-reaction-time,1,P,1,1,42,2314,0,2,260.60000002384186,422,H
2023-04-11T22:45:45Z,qh2z8vvu,serial-reaction-time,1,R,1,1,43,2314,0,1,357.69999998807907,221,L
2023-04-11T22:45:46Z,qh2z8vvu,serial-reaction-time,1,P,1,1,44,2314,0,3,326.5,213,H
2023-04-11T22:45:46Z,qh2z8vvu,serial-reaction-time,1,R,1,1,45,2314,0,2,319.80000001192093,132,L
2023-04-11T22:45:47Z,qh2z8vvu,serial-reaction-time,NA,P,1,1,46,2314,0,1,290.5,321,H
2023-04-11T22:45:47Z,qh2z8vvu,serial-reaction-time,1,P,1,0,46,2314,0,1,514.3999999761581,321,H
2023-04-11T22:45:48Z,qh2z8vvu,serial-reaction-time,1,R,1,1,47,2314,0,2,434.4000000357628,212,T
2023-04-11T22:45:48Z,qh2z8vvu,serial-reaction-time,1,P,1,1,48,2314,0,4,469.699999988079,124,H
2023-04-11T22:45:49Z,qh2z8vvu,serial-reaction-time,1,R,1,1,49,2314,0,1,276.19999998807907,241,L
2023-04-11T22:45:49Z,qh2z8vvu,serial-reaction-time,1,P,1,1,50,2314,0,2,368.199999988079,412,H
2023-04-11T22:45:49Z,qh2z8vvu,serial-reaction-time,NA,R,1,1,51,2314,0,1,309.10000002384186,121,T
2023-04-11T22:45:50Z,qh2z8vvu,serial-reaction-time,1,R,1,0,51,2314,0,1,538.8000000119209,121,T
2023-04-11T22:45:50Z,qh2z8vvu,serial-reaction-time,1,P,1,1,52,2314,0,3,534.3000000119209,213,H
2023-04-11T22:45:51Z,qh2z8vvu,serial-reaction-time,1,R,1,1,53,2314,0,2,420.300000011921,132,L
2023-04-11T22:45:51Z,qh2z8vvu,serial-reaction-time,1,P,1,1,54,2314,0,1,377.39999997615814,321,H
2023-04-11T22:45:52Z,qh2z8vvu,serial-reaction-time,1,R,1,1,55,2314,0,2,348.69999998807907,212,T
2023-04-11T22:45:52Z,qh2z8vvu,serial-reaction-time,1,P,1,1,56,2314,0,4,337.9000000357628,124,H
2023-04-11T22:45:53Z,qh2z8vvu,serial-reaction-time,1,R,1,1,57,2314,0,4,403.7999999523163,244,L
2023-04-11T22:45:53Z,qh2z8vvu,serial-reaction-time,1,P,1,1,58,2314,0,2,321.69999998807907,442,H
2023-04-11T22:45:54Z,qh2z8vvu,serial-reaction-time,1,R,1,1,59,2314,0,3,424.199999988079,423,L
2023-04-11T22:45:54Z,qh2z8vvu,serial-reaction-time,1,P,1,1,60,2314,0,3,351,233,H
2023-04-11T22:45:55Z,qh2z8vvu,serial-reaction-time,1,R,1,1,61,2314,0,1,349.80000001192093,331,H
2023-04-11T22:45:55Z,qh2z8vvu,serial-reaction-time,1,P,1,1,62,2314,0,1,483.699999988079,311,H
2023-04-11T22:45:56Z,qh2z8vvu,serial-reaction-time,NA,R,1,1,63,2314,0,4,341.10000002384186,114,H
2023-04-11T22:45:56Z,qh2z8vvu,serial-reaction-time,1,R,1,0,63,2314,0,4,642.7000000476837,114,H
2023-04-11T22:45:57Z,qh2z8vvu,serial-reaction-time,1,P,1,1,64,2314,0,4,323.19999998807907,144,H
2023-04-11T22:45:57Z,qh2z8vvu,serial-reaction-time,1,R,1,1,65,2314,0,4,339.89999997615814,444,R
2023-04-11T22:45:58Z,qh2z8vvu,serial-reaction-time,1,P,1,1,66,2314,0,2,346.10000002384186,442,H
2023-04-11T22:45:58Z,qh2z8vvu,serial-reaction-time,1,R,1,1,67,2314,0,2,286.60000002384186,422,H
2023-04-11T22:45:59Z,qh2z8vvu,serial-reaction-time,1,P,1,1,68,2314,0,3,489.4000000357628,223,H
2023-04-11T22:45:59Z,qh2z8vvu,serial-reaction-time,1,R,1,1,69,2314,0,4,490.0999999642372,234,L
2023-04-11T22:46:00Z,qh2z8vvu,serial-reaction-time,1,P,1,1,70,2314,0,1,373.10000002384186,341,H
2023-04-11T22:46:00Z,qh2z8vvu,serial-reaction-time,1,R,1,1,71,2314,0,3,390.300000011921,413,L
2023-04-11T22:46:01Z,qh2z8vvu,serial-reaction-time,1,P,1,1,72,2314,0,4,333.69999998807907,134,H
2023-04-11T22:46:01Z,qh2z8vvu,serial-reaction-time,NA,R,1,1,73,2314,0,1,358.10000002384186,341,H
2023-04-11T22:46:01Z,qh2z8vvu,serial-reaction-time,1,R,1,0,73,2314,0,1,581.3000000119209,341,H
2023-04-11T22:46:02Z,qh2z8vvu,serial-reaction-time,1,P,1,1,74,2314,0,2,452,412,H
2023-04-11T22:46:03Z,qh2z8vvu,serial-reaction-time,1,R,1,1,75,2314,0,3,362.4000000357628,123,L
2023-04-11T22:46:03Z,qh2z8vvu,serial-reaction-time,1,P,1,1,76,2314,0,3,340,233,H
2023-04-11T22:46:03Z,qh2z8vvu,serial-reaction-time,1,R,1,1,77,2314,0,2,383.5,332,L
2023-04-11T22:46:04Z,qh2z8vvu,serial-reaction-time,1,P,1,1,78,2314,0,1,381.7000000476837,321,H
2023-04-11T22:46:05Z,qh2z8vvu,serial-reaction-time,1,R,1,1,79,2314,0,4,396,214,L
2023-04-11T22:46:05Z,qh2z8vvu,serial-reaction-time,1,P,1,1,80,2314,0,4,377.89999997615814,144,H
2023-04-11T22:46:10Z,qh2z8vvu,html-keyboard-response,NA,NA,NA,NA,NA,NA,NA,NA,NA,NA,NA
2023-04-11T22:46:11Z,qh2z8vvu,html-keyboard-response,NA,NA,NA,NA,NA,NA,NA,NA,NA,NA,NA
2023-04-11T22:46:12Z,qh2z8vvu,serial-reaction-time,1,R,2,1,1,2314,0,3,363.60000002384186,3,X
2023-04-11T22:46:13Z,qh2z8vvu,serial-reaction-time,1,P,2,1,2,2314,0,2,313.0999999642372,32,X
2023-04-11T22:46:13Z,qh2z8vvu,serial-reaction-time,1,R,2,1,3,2314,0,3,333,323,T
2023-04-11T22:46:13Z,qh2z8vvu,serial-reaction-time,1,P,2,1,4,2314,0,3,324.5,233,H
2023-04-11T22:46:14Z,qh2z8vvu,serial-reaction-time,NA,R,2,1,5,2314,0,4,427.60000002384186,334,L
2023-04-11T22:46:14Z,qh2z8vvu,serial-reaction-time,1,R,2,0,5,2314,0,4,476.300000011921,334,L
2023-04-11T22:46:15Z,qh2z8vvu,serial-reaction-time,1,P,2,1,6,2314,0,1,433.39999997615814,341,H
2023-04-11T22:46:15Z,qh2z8vvu,serial-reaction-time,1,R,2,1,7,2314,0,3,401.300000011921,413,L
2023-04-11T22:46:16Z,qh2z8vvu,serial-reaction-time,1,P,2,1,8,2314,0,4,426.800000011921,134,H
2023-04-11T22:46:16Z,qh2z8vvu,serial-reaction-time,1,R,2,1,9,2314,0,1,397.60000002384186,341,H
2023-04-11T22:46:17Z,qh2z8vvu,serial-reaction-time,1,P,2,1,10,2314,0,2,420.39999997615814,412,H
2023-04-11T22:46:17Z,qh2z8vvu,serial-reaction-time,1,R,2,1,11,2314,0,2,388.5999999642372,122,L
2023-04-11T22:46:18Z,qh2z8vvu,serial-reaction-time,1,P,2,1,12,2314,0,3,390.300000011921,223,H
2023-04-11T22:46:18Z,qh2z8vvu,serial-reaction-time,1,R,2,1,13,2314,0,1,427.199999988079,231,L
2023-04-11T22:46:19Z,qh2z8vvu,serial-reaction-time,1,P,2,1,14,2314,0,1,263.5,311,H
2023-04-11T22:46:19Z,qh2z8vvu,serial-reaction-time,1,R,2,1,15,2314,0,3,427,113,L
2023-04-11T22:46:21Z,qh2z8vvu,serial-reaction-time,1,P,2,1,16,2314,0,4,1105.2999999523165,134,H
2023-04-11T22:46:21Z,qh2z8vvu,serial-reaction-time,1,R,2,1,17,2314,0,1,468.199999988079,341,H
2023-04-11T22:46:22Z,qh2z8vvu,serial-reaction-time,1,P,2,1,18,2314,0,2,582.1999999880791,412,H
2023-04-11T22:46:23Z,qh2z8vvu,serial-reaction-time,1,R,2,1,19,2314,0,1,1020.4000000357628,121,T
2023-04-11T22:46:24Z,qh2z8vvu,serial-reaction-time,NA,P,2,1,20,2314,0,3,463.800000011921,213,H
2023-04-11T22:46:24Z,qh2z8vvu,serial-reaction-time,1,P,2,0,20,2314,0,3,729.6999999880791,213,H
2023-04-11T22:46:24Z,qh2z8vvu,serial-reaction-time,1,R,2,1,21,2314,0,2,403.800000011921,132,L
2023-04-11T22:46:25Z,qh2z8vvu,serial-reaction-time,1,P,2,1,22,2314,0,1,347.5,321,H
2023-04-11T22:46:25Z,qh2z8vvu,serial-reaction-time,NA,R,2,1,23,2314,0,2,369.60000002384186,212,T
2023-04-11T22:46:26Z,qh2z8vvu,serial-reaction-time,1,R,2,0,23,2314,0,2,650.6999999880791,212,T
2023-04-11T22:46:26Z,qh2z8vvu,serial-reaction-time,1,P,2,1,24,2314,0,4,406.39999997615814,124,H
2023-04-11T22:46:27Z,qh2z8vvu,serial-reaction-time,NA,R,2,1,25,2314,0,2,321.69999998807907,242,T
2023-04-11T22:46:27Z,qh2z8vvu,serial-reaction-time,1,R,2,0,25,2314,0,2,602.6999999880791,242,T
2023-04-11T22:46:27Z,qh2z8vvu,serial-reaction-time,1,P,2,1,26,2314,0,2,356.30000001192093,422,H
2023-04-11T22:46:28Z,qh2z8vvu,serial-reaction-time,1,R,2,1,27,2314,0,4,385.4000000357628,224,L
2023-04-11T22:46:29Z,qh2z8vvu,serial-reaction-time,1,P,2,1,28,2314,0,3,572.6000000238419,243,H
2023-04-11T22:46:29Z,qh2z8vvu,serial-reaction-time,1,R,2,1,29,2314,0,3,314.80000001192093,433,L
2023-04-11T22:46:29Z,qh2z8vvu,serial-reaction-time,1,P,2,1,30,2314,0,1,368.10000002384186,331,H
2023-04-11T22:46:30Z,qh2z8vvu,serial-reaction-time,1,R,2,1,31,2314,0,3,384.300000011921,313,T
2023-04-11T22:46:30Z,qh2z8vvu,serial-reaction-time,1,P,2,1,32,2314,0,4,354.89999997615814,134,H
2023-04-11T22:46:31Z,qh2z8vvu,serial-reaction-time,1,R,2,1,33,2314,0,1,330,341,H
2023-04-11T22:46:31Z,qh2z8vvu,serial-reaction-time,1,P,2,1,34,2314,0,2,358.39999997615814,412,H
2023-04-11T22:46:32Z,qh2z8vvu,serial-reaction-time,1,R,2,1,35,2314,0,3,393.800000011921,123,L
2023-04-11T22:46:32Z,qh2z8vvu,serial-reaction-time,1,P,2,1,36,2314,0,3,359.5999999642372,233,H
2023-04-11T22:46:33Z,qh2z8vvu,serial-reaction-time,1,R,2,1,37,2314,0,3,339.10000002384186,333,R
2023-04-11T22:46:33Z,qh2z8vvu,serial-reaction-time,1,P,2,1,38,2314,0,1,328.30000001192093,331,H
2023-04-11T22:46:34Z,qh2z8vvu,serial-reaction-time,1,R,2,1,39,2314,0,2,399.5,312,L
2023-04-11T22:46:34Z,qh2z8vvu,serial-reaction-time,1,P,2,1,40,2314,0,4,363.5999999642372,124,H
2023-04-11T22:46:35Z,qh2z8vvu,serial-reaction-time,1,R,2,1,41,2314,0,4,360.5,244,L
2023-04-11T22:46:35Z,qh2z8vvu,serial-reaction-time,1,P,2,1,42,2314,0,2,312.60000002384186,442,H
2023-04-11T22:46:36Z,qh2z8vvu,serial-reaction-time,1,R,2,1,43,2314,0,2,297.30000001192093,422,H
2023-04-11T22:46:36Z,qh2z8vvu,serial-reaction-time,1,P,2,1,44,2314,0,3,374.2000000476837,223,H
2023-04-11T22:46:37Z,qh2z8vvu,serial-reaction-time,1,R,2,1,45,2314,0,1,384.699999988079,231,L
2023-04-11T22:46:37Z,qh2z8vvu,serial-reaction-time,1,P,2,1,46,2314,0,1,325.5999999642372,311,H
2023-04-11T22:46:38Z,qh2z8vvu,serial-reaction-time,1,R,2,1,47,2314,0,4,483,114,H
2023-04-11T22:46:38Z,qh2z8vvu,serial-reaction-time,1,P,2,1,48,2314,0,4,279.5,144,H
2023-04-11T22:46:39Z,qh2z8vvu,serial-reaction-time,1,R,2,1,49,2314,0,4,328.19999998807907,444,R
2023-04-11T22:46:39Z,qh2z8vvu,serial-reaction-time,1,P,2,1,50,2314,0,2,329,442,H
2023-04-11T22:46:40Z,qh2z8vvu,serial-reaction-time,1,R,2,1,51,2314,0,1,339.89999997615814,421,L
2023-04-11T22:46:40Z,qh2z8vvu,serial-reaction-time,1,P,2,1,52,2314,0,3,545.5,213,H
2023-04-11T22:46:41Z,qh2z8vvu,serial-reaction-time,1,R,2,1,53,2314,0,2,346.9000000357628,132,L
2023-04-11T22:46:41Z,qh2z8vvu,serial-reaction-time,NA,P,2,1,54,2314,0,1,382.2999999523163,321,H
2023-04-11T22:46:41Z,qh2z8vvu,serial-reaction-time,1,P,2,0,54,2314,0,1,563.5999999642372,321,H
2023-04-11T22:46:42Z,qh2z8vvu,serial-reaction-time,1,R,2,1,55,2314,0,4,406.2999999523163,214,L
2023-04-11T22:46:42Z,qh2z8vvu,serial-reaction-time,1,P,2,1,56,2314,0,4,273,144,H
2023-04-11T22:46:43Z,qh2z8vvu,serial-reaction-time,1,R,2,1,57,2314,0,4,358,444,R
2023-04-11T22:46:43Z,qh2z8vvu,serial-reaction-time,1,P,2,1,58,2314,0,2,274.89999997615814,442,H
2023-04-11T22:46:44Z,qh2z8vvu,serial-reaction-time,NA,R,2,1,59,2314,0,3,272.0999999642372,423,L
2023-04-11T22:46:44Z,qh2z8vvu,serial-reaction-time,1,R,2,0,59,2314,0,3,391.8999999165535,423,L
2023-04-11T22:46:44Z,qh2z8vvu,serial-reaction-time,1,P,2,1,60,2314,0,3,353.10000002384186,233,H
2023-04-11T22:46:45Z,qh2z8vvu,serial-reaction-time,1,R,2,1,61,2314,0,4,401.699999988079,334,L
2023-04-11T22:46:45Z,qh2z8vvu,serial-reaction-time,1,P,2,1,62,2314,0,1,310.4000000357628,341,H
2023-04-11T22:46:46Z,qh2z8vvu,serial-reaction-time,1,R,2,1,63,2314,0,3,360.60000002384186,413,L
2023-04-11T22:46:47Z,qh2z8vvu,serial-reaction-time,1,P,2,1,64,2314,0,4,1224.0999999642372,134,H
2023-04-11T22:46:48Z,qh2z8vvu,serial-reaction-time,1,R,2,1,65,2314,0,3,555.9000000357628,343,T
2023-04-11T22:46:48Z,qh2z8vvu,serial-reaction-time,1,P,2,1,66,2314,0,2,325.10000002384186,432,H
2023-04-11T22:46:49Z,qh2z8vvu,serial-reaction-time,1,R,2,1,67,2314,0,2,310,322,L
2023-04-11T22:46:49Z,qh2z8vvu,serial-reaction-time,1,P,2,1,68,2314,0,3,361.9000000357628,223,H
2023-04-11T22:46:50Z,qh2z8vvu,serial-reaction-time,1,R,2,1,69,2314,0,4,345.60000002384186,234,L
2023-04-11T22:46:50Z,qh2z8vvu,serial-reaction-time,1,P,2,1,70,2314,0,1,291.5,341,H
2023-04-11T22:46:51Z,qh2z8vvu,serial-reaction-time,1,R,2,1,71,2314,0,4,415.89999997615814,414,T
2023-04-11T22:46:51Z,qh2z8vvu,serial-reaction-time,1,P,2,1,72,2314,0,4,336.80000001192093,144,H
2023-04-11T22:46:51Z,qh2z8vvu,serial-reaction-time,NA,R,2,1,73,2314,0,1,334.89999997615814,441,L
2023-04-11T22:46:52Z,qh2z8vvu,serial-reaction-time,1,R,2,0,73,2314,0,1,525.8999999761581,441,L
2023-04-11T22:46:52Z,qh2z8vvu,serial-reaction-time,1,P,2,1,74,2314,0,2,443.5,412,H
2023-04-11T22:46:53Z,qh2z8vvu,serial-reaction-time,1,R,2,1,75,2314,0,4,394.2999999523163,124,H
2023-04-11T22:46:53Z,qh2z8vvu,serial-reaction-time,NA,P,2,1,76,2314,0,3,379.7000000476837,243,H
2023-04-11T22:46:53Z,qh2z8vvu,serial-reaction-time,1,P,2,0,76,2314,0,3,575.3000000119209,243,H
2023-04-11T22:46:54Z,qh2z8vvu,serial-reaction-time,1,R,2,1,77,2314,0,2,318.0999999642372,432,H
2023-04-11T22:46:54Z,qh2z8vvu,serial-reaction-time,1,P,2,1,78,2314,0,1,351.80000001192093,321,H
2023-04-11T22:46:55Z,qh2z8vvu,serial-reaction-time,1,R,2,1,79,2314,0,3,312.7999999523163,213,H
2023-04-11T22:46:55Z,qh2z8vvu,serial-reaction-time,1,P,2,1,80,2314,0,4,340.39999997615814,134,H
2023-04-11T22:47:00Z,qh2z8vvu,html-keyboard-response,NA,NA,NA,NA,NA,NA,NA,NA,NA,NA,NA
2023-04-11T22:47:07Z,qh2z8vvu,html-keyboard-response,NA,NA,NA,NA,NA,NA,NA,NA,NA,NA,NA
2023-04-11T22:47:08Z,qh2z8vvu,serial-reaction-time,1,R,3,1,1,2314,0,1,421.199999988079,1,X
2023-04-11T22:47:09Z,qh2z8vvu,serial-reaction-time,1,P,3,1,2,2314,0,2,387.9000000357628,12,X
2023-04-11T22:47:09Z,qh2z8vvu,serial-reaction-time,1,R,3,1,3,2314,0,3,366.5,123,L
2023-04-11T22:47:10Z,qh2z8vvu,serial-reaction-time,1,P,3,1,4,2314,0,3,341.89999997615814,233,H
2023-04-11T22:47:10Z,qh2z8vvu,serial-reaction-time,1,R,3,1,5,2314,0,3,323.60000002384186,333,R
2023-04-11T22:47:11Z,qh2z8vvu,serial-reaction-time,1,P,3,1,6,2314,0,1,319.10000002384186,331,H
2023-04-11T22:47:11Z,qh2z8vvu,serial-reaction-time,1,R,3,1,7,2314,0,3,354.69999998807907,313,T
2023-04-11T22:47:12Z,qh2z8vvu,serial-reaction-time,1,P,3,1,8,2314,0,4,431.699999988079,134,H
2023-04-11T22:47:12Z,qh2z8vvu,serial-reaction-time,1,R,3,1,9,2314,0,1,319.9000000357628,341,H
2023-04-11T22:47:13Z,qh2z8vvu,serial-reaction-time,1,P,3,1,10,2314,0,2,416.199999988079,412,H
2023-04-11T22:47:13Z,qh2z8vvu,serial-reaction-time,1,R,3,1,11,2314,0,3,324,123,L
2023-04-11T22:47:14Z,qh2z8vvu,serial-reaction-time,1,P,3,1,12,2314,0,3,286.80000001192093,233,H
2023-04-11T22:47:14Z,qh2z8vvu,serial-reaction-time,1,R,3,1,13,2314,0,4,379.7000000476837,334,L
2023-04-11T22:47:15Z,qh2z8vvu,serial-reaction-time,1,P,3,1,14,2314,0,1,314.30000001192093,341,H
2023-04-11T22:47:15Z,qh2z8vvu,serial-reaction-time,1,R,3,1,15,2314,0,3,321.7999999523163,413,L
2023-04-11T22:47:16Z,qh2z8vvu,serial-reaction-time,1,P,3,1,16,2314,0,4,351.5999999642372,134,H
2023-04-11T22:47:16Z,qh2z8vvu,serial-reaction-time,1,R,3,1,17,2314,0,3,429.9000000357628,343,T
2023-04-11T22:47:17Z,qh2z8vvu,serial-reaction-time,1,P,3,1,18,2314,0,2,299.7000000476837,432,H
2023-04-11T22:47:17Z,qh2z8vvu,serial-reaction-time,1,R,3,1,19,2314,0,2,321.19999998807907,322,L
2023-04-11T22:47:17Z,qh2z8vvu,serial-reaction-time,NA,P,3,1,20,2314,0,3,325.19999998807907,223,H
2023-04-11T22:47:18Z,qh2z8vvu,serial-reaction-time,1,P,3,0,20,2314,0,3,532.2999999523163,223,H
2023-04-11T22:47:18Z,qh2z8vvu,serial-reaction-time,1,R,3,1,21,2314,0,2,409.300000011921,232,T
2023-04-11T22:47:19Z,qh2z8vvu,serial-reaction-time,1,P,3,1,22,2314,0,1,376.699999988079,321,H
2023-04-11T22:47:19Z,qh2z8vvu,serial-reaction-time,1,R,3,1,23,2314,0,4,413.2999999523163,214,L
2023-04-11T22:47:20Z,qh2z8vvu,serial-reaction-time,1,P,3,1,24,2314,0,4,285.30000001192093,144,H
2023-04-11T22:47:20Z,qh2z8vvu,serial-reaction-time,1,R,3,1,25,2314,0,4,325.69999998807907,444,R
2023-04-11T22:47:21Z,qh2z8vvu,serial-reaction-time,1,P,3,1,26,2314,0,2,361.2000000476837,442,H
2023-04-11T22:47:21Z,qh2z8vvu,serial-reaction-time,1,R,3,1,27,2314,0,1,375.5,421,L
2023-04-11T22:47:22Z,qh2z8vvu,serial-reaction-time,1,P,3,1,28,2314,0,3,507.60000002384186,213,H
2023-04-11T22:47:22Z,qh2z8vvu,serial-reaction-time,1,R,3,1,29,2314,0,2,403.800000011921,132,L
2023-04-11T22:47:23Z,qh2z8vvu,serial-reaction-time,1,P,3,1,30,2314,0,1,397.300000011921,321,H
2023-04-11T22:47:23Z,qh2z8vvu,serial-reaction-time,1,R,3,1,31,2314,0,4,478.10000002384186,214,L
2023-04-11T22:47:24Z,qh2z8vvu,serial-reaction-time,1,P,3,1,32,2314,0,4,274,144,H
2023-04-11T22:47:24Z,qh2z8vvu,serial-reaction-time,NA,R,3,1,33,2314,0,4,265,444,R
2023-04-11T22:47:25Z,qh2z8vvu,serial-reaction-time,1,R,3,0,33,2314,0,4,599.2000000476837,444,R
2023-04-11T22:47:25Z,qh2z8vvu,serial-reaction-time,1,P,3,1,34,2314,0,2,358.19999998807907,442,H
2023-04-11T22:47:26Z,qh2z8vvu,serial-reaction-time,NA,R,3,1,35,2314,0,4,369,424,T
2023-04-11T22:47:26Z,qh2z8vvu,serial-reaction-time,1,R,3,0,35,2314,0,4,540.8000000119209,424,T
2023-04-11T22:47:26Z,qh2z8vvu,serial-reaction-time,1,P,3,1,36,2314,0,3,529.4000000357628,243,H
2023-04-11T22:47:27Z,qh2z8vvu,serial-reaction-time,1,R,3,1,37,2314,0,1,369.0999999642372,431,L
2023-04-11T22:47:27Z,qh2z8vvu,serial-reaction-time,1,P,3,1,38,2314,0,1,339.5,311,H
2023-04-11T22:47:28Z,qh2z8vvu,serial-reaction-time,1,R,3,1,39,2314,0,2,443.699999988079,112,L
2023-04-11T22:47:28Z,qh2z8vvu,serial-reaction-time,1,P,3,1,40,2314,0,4,413.5,124,H
2023-04-11T22:47:29Z,qh2z8vvu,serial-reaction-time,1,R,3,1,41,2314,0,2,368.800000011921,242,T
2023-04-11T22:47:29Z,qh2z8vvu,serial-reaction-time,1,P,3,1,42,2314,0,2,328.2999999523163,422,H
2023-04-11T22:47:30Z,qh2z8vvu,serial-reaction-time,1,R,3,1,43,2314,0,1,347.30000001192093,221,L
2023-04-11T22:47:30Z,qh2z8vvu,serial-reaction-time,1,P,3,1,44,2314,0,3,439.89999997615814,213,H
2023-04-11T22:47:31Z,qh2z8vvu,serial-reaction-time,1,R,3,1,45,2314,0,4,399.9000000357628,134,H
2023-04-11T22:47:31Z,qh2z8vvu,serial-reaction-time,1,P,3,1,46,2314,0,1,312.30000001192093,341,H
2023-04-11T22:47:32Z,qh2z8vvu,serial-reaction-time,1,R,3,1,47,2314,0,3,413.199999988079,413,L
2023-04-11T22:47:32Z,qh2z8vvu,serial-reaction-time,1,P,3,1,48,2314,0,4,389.699999988079,134,H
2023-04-11T22:47:33Z,qh2z8vvu,serial-reaction-time,1,R,3,1,49,2314,0,1,365.199999988079,341,H
2023-04-11T22:47:33Z,qh2z8vvu,serial-reaction-time,1,P,3,1,50,2314,0,2,397.39999997615814,412,H
2023-04-11T22:47:34Z,qh2z8vvu,serial-reaction-time,1,R,3,1,51,2314,0,4,353.89999997615814,124,H
2023-04-11T22:47:35Z,qh2z8vvu,serial-reaction-time,1,P,3,1,52,2314,0,3,495.199999988079,243,H
2023-04-11T22:47:35Z,qh2z8vvu,serial-reaction-time,1,R,3,1,53,2314,0,3,373.5,433,L
2023-04-11T22:47:35Z,qh2z8vvu,serial-reaction-time,NA,P,3,1,54,2314,0,1,337.5,331,H
2023-04-11T22:47:36Z,qh2z8vvu,serial-reaction-time,1,P,3,0,54,2314,0,1,408.800000011921,331,H
2023-04-11T22:47:36Z,qh2z8vvu,serial-reaction-time,NA,R,3,1,55,2314,0,3,410.699999988079,313,T
2023-04-11T22:47:36Z,qh2z8vvu,serial-reaction-time,1,R,3,0,55,2314,0,3,707,313,T
2023-04-11T22:47:37Z,qh2z8vvu,serial-reaction-time,1,P,3,1,56,2314,0,4,373,134,H
2023-04-11T22:47:37Z,qh2z8vvu,serial-reaction-time,NA,R,3,1,57,2314,0,3,380.800000011921,343,T
2023-04-11T22:47:38Z,qh2z8vvu,serial-reaction-time,1,R,3,0,57,2314,0,3,635.1000000238419,343,T
2023-04-11T22:47:38Z,qh2z8vvu,serial-reaction-time,1,P,3,1,58,2314,0,2,332.5,432,H
2023-04-11T22:47:39Z,qh2z8vvu,serial-reaction-time,1,R,3,1,59,2314,0,4,433.7000000476837,324,L
2023-04-11T22:47:39Z,qh2z8vvu,serial-reaction-time,1,P,3,1,60,2314,0,3,504.60000002384186,243,H
2023-04-11T22:47:40Z,qh2z8vvu,serial-reaction-time,1,R,3,1,61,2314,0,2,342.19999998807907,432,H
2023-04-11T22:47:40Z,qh2z8vvu,serial-reaction-time,1,P,3,1,62,2314,0,1,344,321,H
2023-04-11T22:47:41Z,qh2z8vvu,serial-reaction-time,1,R,3,1,63,2314,0,3,338.69999998807907,213,H
2023-04-11T22:47:41Z,qh2z8vvu,serial-reaction-time,1,P,3,1,64,2314,0,4,360.2000000476837,134,H
2023-04-11T22:47:42Z,qh2z8vvu,serial-reaction-time,1,R,3,1,65,2314,0,4,384.10000002384186,344,L
2023-04-11T22:47:42Z,qh2z8vvu,serial-reaction-time,1,P,3,1,66,2314,0,2,345.30000001192093,442,H
2023-04-11T22:47:43Z,qh2z8vvu,serial-reaction-time,1,R,3,1,67,2314,0,3,409.60000002384186,423,L
2023-04-11T22:47:43Z,qh2z8vvu,serial-reaction-time,1,P,3,1,68,2314,0,3,371.800000011921,233,H
2023-04-11T22:47:44Z,qh2z8vvu,serial-reaction-time,1,R,3,1,69,2314,0,3,345.4000000357628,333,R
2023-04-11T22:47:44Z,qh2z8vvu,serial-reaction-time,1,P,3,1,70,2314,0,1,354.5,331,H
2023-04-11T22:47:45Z,qh2z8vvu,serial-reaction-time,NA,R,3,1,71,2314,0,2,338.0999999642372,312,L
2023-04-11T22:47:45Z,qh2z8vvu,serial-reaction-time,1,R,3,0,71,2314,0,2,554.1999999880791,312,L
2023-04-11T22:47:45Z,qh2z8vvu,serial-reaction-time,1,P,3,1,72,2314,0,4,399.800000011921,124,H
2023-04-11T22:47:46Z,qh2z8vvu,serial-reaction-time,1,R,3,1,73,2314,0,4,321.69999998807907,244,L
2023-04-11T22:47:46Z,qh2z8vvu,serial-reaction-time,1,P,3,1,74,2314,0,2,361,442,H
2023-04-11T22:47:47Z,qh2z8vvu,serial-reaction-time,1,R,3,1,75,2314,0,1,382.800000011921,421,L
2023-04-11T22:47:47Z,qh2z8vvu,serial-reaction-time,1,P,3,1,76,2314,0,3,382.199999988079,213,H
2023-04-11T22:47:48Z,qh2z8vvu,serial-reaction-time,1,R,3,1,77,2314,0,1,320.80000001192093,131,T
2023-04-11T22:47:48Z,qh2z8vvu,serial-reaction-time,1,P,3,1,78,2314,0,1,331.69999998807907,311,H
2023-04-11T22:47:49Z,qh2z8vvu,serial-reaction-time,1,R,3,1,79,2314,0,4,421.800000011921,114,H
2023-04-11T22:47:49Z,qh2z8vvu,serial-reaction-time,1,P,3,1,80,2314,0,4,303.0999999642372,144,H
2023-04-11T22:47:54Z,qh2z8vvu,html-keyboard-response,NA,NA,NA,NA,NA,NA,NA,NA,NA,NA,NA
2023-04-11T22:47:54Z,qh2z8vvu,html-keyboard-response,NA,NA,NA,NA,NA,NA,NA,NA,NA,NA,NA
2023-04-11T22:47:56Z,qh2z8vvu,serial-reaction-time,1,R,4,1,1,2314,0,4,402.89999997615814,4,X
2023-04-11T22:47:56Z,qh2z8vvu,serial-reaction-time,1,P,4,1,2,2314,0,2,330.60000002384186,42,X
2023-04-11T22:47:57Z,qh2z8vvu,serial-reaction-time,NA,R,4,1,3,2314,0,1,298.5,421,L
2023-04-11T22:47:57Z,qh2z8vvu,serial-reaction-time,1,R,4,0,3,2314,0,1,429,421,L
2023-04-11T22:47:57Z,qh2z8vvu,serial-reaction-time,1,P,4,1,4,2314,0,3,379.7000000476837,213,H
2023-04-11T22:47:58Z,qh2z8vvu,serial-reaction-time,1,R,4,1,5,2314,0,1,275.10000002384186,131,T
2023-04-11T22:47:58Z,qh2z8vvu,serial-reaction-time,1,P,4,1,6,2314,0,1,293.19999998807907,311,H
2023-04-11T22:47:59Z,qh2z8vvu,serial-reaction-time,1,R,4,1,7,2314,0,2,424.7000000476837,112,L
2023-04-11T22:47:59Z,qh2z8vvu,serial-reaction-time,NA,P,4,1,8,2314,0,4,375.300000011921,124,H
2023-04-11T22:47:59Z,qh2z8vvu,serial-reaction-time,1,P,4,0,8,2314,0,4,564.8999999761581,124,H
2023-04-11T22:48:00Z,qh2z8vvu,serial-reaction-time,1,R,4,1,9,2314,0,4,317.19999998807907,244,L
2023-04-11T22:48:00Z,qh2z8vvu,serial-reaction-time,1,P,4,1,10,2314,0,2,312.5,442,H
2023-04-11T22:48:01Z,qh2z8vvu,serial-reaction-time,1,R,4,1,11,2314,0,3,362.60000002384186,423,L
2023-04-11T22:48:01Z,qh2z8vvu,serial-reaction-time,1,P,4,1,12,2314,0,3,324.5999999642372,233,H
2023-04-11T22:48:02Z,qh2z8vvu,serial-reaction-time,1,R,4,1,13,2314,0,3,358.9000000357628,333,R
2023-04-11T22:48:02Z,qh2z8vvu,serial-reaction-time,1,P,4,1,14,2314,0,1,301.10000002384186,331,H
2023-04-11T22:48:03Z,qh2z8vvu,serial-reaction-time,1,R,4,1,15,2314,0,2,374.7000000476837,312,L
2023-04-11T22:48:03Z,qh2z8vvu,serial-reaction-time,1,P,4,1,16,2314,0,4,396.5999999642372,124,H
2023-04-11T22:48:04Z,qh2z8vvu,serial-reaction-time,NA,R,4,1,17,2314,0,3,424.5,243,H
2023-04-11T22:48:04Z,qh2z8vvu,serial-reaction-time,1,R,4,0,17,2314,0,3,612.1999999880791,243,H
2023-04-11T22:48:04Z,qh2z8vvu,serial-reaction-time,1,P,4,1,18,2314,0,2,364.5,432,H
2023-04-11T22:48:05Z,qh2z8vvu,serial-reaction-time,1,R,4,1,19,2314,0,2,323.30000001192093,322,L
2023-04-11T22:48:05Z,qh2z8vvu,serial-reaction-time,1,P,4,1,20,2314,0,3,439.199999988079,223,H
2023-04-11T22:48:06Z,qh2z8vvu,serial-reaction-time,1,R,4,1,21,2314,0,2,423,232,T
2023-04-11T22:48:06Z,qh2z8vvu,serial-reaction-time,1,P,4,1,22,2314,0,1,283.0999999642372,321,H
2023-04-11T22:48:07Z,qh2z8vvu,serial-reaction-time,1,R,4,1,23,2314,0,3,301.5,213,H
2023-04-11T22:48:07Z,qh2z8vvu,serial-reaction-time,1,P,4,1,24,2314,0,4,349.5,134,H
2023-04-11T22:48:08Z,qh2z8vvu,serial-reaction-time,1,R,4,1,25,2314,0,3,591.8000000119209,343,T
2023-04-11T22:48:08Z,qh2z8vvu,serial-reaction-time,1,P,4,1,26,2314,0,2,372.10000002384186,432,H
2023-04-11T22:48:09Z,qh2z8vvu,serial-reaction-time,1,R,4,1,27,2314,0,3,403,323,T
2023-04-11T22:48:09Z,qh2z8vvu,serial-reaction-time,1,P,4,1,28,2314,0,3,334.69999998807907,233,H
2023-04-11T22:48:10Z,qh2z8vvu,serial-reaction-time,1,R,4,1,29,2314,0,3,294,333,R
2023-04-11T22:48:10Z,qh2z8vvu,serial-reaction-time,1,P,4,1,30,2314,0,1,347.9000000357628,331,H
2023-04-11T22:48:11Z,qh2z8vvu,serial-reaction-time,NA,R,4,1,31,2314,0,4,216.30000001192093,314,L
2023-04-11T22:48:11Z,qh2z8vvu,serial-reaction-time,1,R,4,0,31,2314,0,4,603.8000000119209,314,L
2023-04-11T22:48:11Z,qh2z8vvu,serial-reaction-time,1,P,4,1,32,2314,0,4,354,144,H
2023-04-11T22:48:12Z,qh2z8vvu,serial-reaction-time,1,R,4,1,33,2314,0,4,346.19999998807907,444,R
2023-04-11T22:48:13Z,qh2z8vvu,serial-reaction-time,NA,P,4,1,34,2314,0,2,483.800000011921,442,H
2023-04-11T22:48:13Z,qh2z8vvu,serial-reaction-time,NA,P,4,0,34,2314,0,2,803.4000000357628,442,H
2023-04-11T22:48:13Z,qh2z8vvu,serial-reaction-time,1,P,4,0,34,2314,0,2,1021.2000000476836,442,H
2023-04-11T22:48:14Z,qh2z8vvu,serial-reaction-time,1,R,4,1,35,2314,0,1,408.5,421,L
2023-04-11T22:48:14Z,qh2z8vvu,serial-reaction-time,1,P,4,1,36,2314,0,3,392.2999999523163,213,H
2023-04-11T22:48:15Z,qh2z8vvu,serial-reaction-time,1,R,4,1,37,2314,0,2,409.89999997615814,132,L
2023-04-11T22:48:15Z,qh2z8vvu,serial-reaction-time,1,P,4,1,38,2314,0,1,407.10000002384186,321,H
2023-04-11T22:48:16Z,qh2z8vvu,serial-reaction-time,NA,R,4,1,39,2314,0,4,397.7999999523163,214,L
2023-04-11T22:48:16Z,qh2z8vvu,serial-reaction-time,1,R,4,0,39,2314,0,4,537.7999999523163,214,L
2023-04-11T22:48:16Z,qh2z8vvu,serial-reaction-time,1,P,4,1,40,2314,0,4,305.80000001192093,144,H
2023-04-11T22:48:17Z,qh2z8vvu,serial-reaction-time,1,R,4,1,41,2314,0,2,329.69999998807907,442,H
2023-04-11T22:48:17Z,qh2z8vvu,serial-reaction-time,1,P,4,1,42,2314,0,2,399.199999988079,422,H
2023-04-11T22:48:18Z,qh2z8vvu,serial-reaction-time,1,R,4,1,43,2314,0,3,385.5,223,H
2023-04-11T22:48:18Z,qh2z8vvu,serial-reaction-time,1,P,4,1,44,2314,0,3,344.60000002384186,233,H
2023-04-11T22:48:19Z,qh2z8vvu,serial-reaction-time,1,R,4,1,45,2314,0,2,340.10000002384186,332,L
2023-04-11T22:48:19Z,qh2z8vvu,serial-reaction-time,1,P,4,1,46,2314,0,1,344.39999997615814,321,H
2023-04-11T22:48:20Z,qh2z8vvu,serial-reaction-time,1,R,4,1,47,2314,0,4,396.7999999523163,214,L
2023-04-11T22:48:20Z,qh2z8vvu,serial-reaction-time,1,P,4,1,48,2314,0,4,449.300000011921,144,H
2023-04-11T22:48:21Z,qh2z8vvu,serial-reaction-time,1,R,4,1,49,2314,0,1,379.9000000357628,441,L
2023-04-11T22:48:21Z,qh2z8vvu,serial-reaction-time,1,P,4,1,50,2314,0,2,380.199999988079,412,H
2023-04-11T22:48:22Z,qh2z8vvu,serial-reaction-time,1,R,4,1,51,2314,0,1,413.0999999642372,121,T
2023-04-11T22:48:22Z,qh2z8vvu,serial-reaction-time,1,P,4,1,52,2314,0,3,366.89999997615814,213,H
2023-04-11T22:48:23Z,qh2z8vvu,serial-reaction-time,1,R,4,1,53,2314,0,2,384.199999988079,132,L
2023-04-11T22:48:23Z,qh2z8vvu,serial-reaction-time,1,P,4,1,54,2314,0,1,390.199999988079,321,H
2023-04-11T22:48:24Z,qh2z8vvu,serial-reaction-time,1,R,4,1,55,2314,0,2,409.5,212,T
2023-04-11T22:48:24Z,qh2z8vvu,serial-reaction-time,1,P,4,1,56,2314,0,4,405.89999997615814,124,H
2023-04-11T22:48:25Z,qh2z8vvu,serial-reaction-time,NA,R,4,1,57,2314,0,1,355.9000000357628,241,L
2023-04-11T22:48:25Z,qh2z8vvu,serial-reaction-time,1,R,4,0,57,2314,0,1,722.4000000357628,241,L
2023-04-11T22:48:26Z,qh2z8vvu,serial-reaction-time,1,P,4,1,58,2314,0,2,392.0999999642372,412,H
2023-04-11T22:48:26Z,qh2z8vvu,serial-reaction-time,1,R,4,1,59,2314,0,3,444.5,123,L
2023-04-11T22:48:27Z,qh2z8vvu,serial-reaction-time,1,P,4,1,60,2314,0,3,332.5,233,H
2023-04-11T22:48:27Z,qh2z8vvu,serial-reaction-time,1,R,4,1,61,2314,0,3,387.800000011921,333,R
2023-04-11T22:48:28Z,qh2z8vvu,serial-reaction-time,1,P,4,1,62,2314,0,1,371.10000002384186,331,H
2023-04-11T22:48:28Z,qh2z8vvu,serial-reaction-time,1,R,4,1,63,2314,0,3,401.699999988079,313,T
2023-04-11T22:48:29Z,qh2z8vvu,serial-reaction-time,1,P,4,1,64,2314,0,4,415.2000000476837,134,H
2023-04-11T22:48:29Z,qh2z8vvu,serial-reaction-time,1,R,4,1,65,2314,0,1,288.69999998807907,341,H
2023-04-11T22:48:30Z,qh2z8vvu,serial-reaction-time,1,P,4,1,66,2314,0,2,340.80000001192093,412,H
2023-04-11T22:48:30Z,qh2z8vvu,serial-reaction-time,1,R,4,1,67,2314,0,2,380.199999988079,122,L
2023-04-11T22:48:31Z,qh2z8vvu,serial-reaction-time,1,P,4,1,68,2314,0,3,396.800000011921,223,H
2023-04-11T22:48:31Z,qh2z8vvu,serial-reaction-time,1,R,4,1,69,2314,0,1,319.89999997615814,231,L
2023-04-11T22:48:32Z,qh2z8vvu,serial-reaction-time,1,P,4,1,70,2314,0,1,322.9000000357628,311,H
2023-04-11T22:48:32Z,qh2z8vvu,serial-reaction-time,NA,R,4,1,71,2314,0,3,401.199999988079,113,L
2023-04-11T22:48:32Z,qh2z8vvu,serial-reaction-time,1,R,4,0,71,2314,0,3,476.2999999523163,113,L
2023-04-11T22:48:33Z,qh2z8vvu,serial-reaction-time,1,P,4,1,72,2314,0,4,443.4000000357628,134,H
2023-04-11T22:48:33Z,qh2z8vvu,serial-reaction-time,1,R,4,1,73,2314,0,2,424.5,342,L
2023-04-11T22:48:34Z,qh2z8vvu,serial-reaction-time,1,P,4,1,74,2314,0,2,278.69999998807907,422,H
2023-04-11T22:48:34Z,qh2z8vvu,serial-reaction-time,1,R,4,1,75,2314,0,3,411.800000011921,223,H
2023-04-11T22:48:35Z,qh2z8vvu,serial-reaction-time,1,P,4,1,76,2314,0,3,302.10000002384186,233,H
2023-04-11T22:48:35Z,qh2z8vvu,serial-reaction-time,1,R,4,1,77,2314,0,1,346.69999998807907,331,H
2023-04-11T22:48:36Z,qh2z8vvu,serial-reaction-time,1,P,4,1,78,2314,0,1,348.69999998807907,311,H
2023-04-11T22:48:36Z,qh2z8vvu,serial-reaction-time,1,R,4,1,79,2314,0,1,281.60000002384186,111,R
2023-04-11T22:48:37Z,qh2z8vvu,serial-reaction-time,1,P,4,1,80,2314,0,4,380.89999997615814,114,H
2023-04-11T22:48:42Z,qh2z8vvu,html-keyboard-response,NA,NA,NA,NA,NA,NA,NA,NA,NA,NA,NA
2023-04-11T22:48:42Z,qh2z8vvu,html-keyboard-response,NA,NA,NA,NA,NA,NA,NA,NA,NA,NA,NA
2023-04-11T22:48:43Z,qh2z8vvu,serial-reaction-time,1,R,5,1,1,2314,0,3,404.199999988079,3,X
2023-04-11T22:48:44Z,qh2z8vvu,serial-reaction-time,NA,P,5,1,2,2314,0,2,342.9000000357628,32,X
2023-04-11T22:48:44Z,qh2z8vvu,serial-reaction-time,1,P,5,0,2,2314,0,2,397.4000000357628,32,X
2023-04-11T22:48:44Z,qh2z8vvu,serial-reaction-time,1,R,5,1,3,2314,0,1,425.0999999642372,321,H
2023-04-11T22:48:45Z,qh2z8vvu,serial-reaction-time,1,P,5,1,4,2314,0,3,361.89999997615814,213,H
2023-04-11T22:48:45Z,qh2z8vvu,serial-reaction-time,1,R,5,1,5,2314,0,4,344.5,134,H
2023-04-11T22:48:46Z,qh2z8vvu,serial-reaction-time,1,P,5,1,6,2314,0,1,295.80000001192093,341,H
2023-04-11T22:48:46Z,qh2z8vvu,serial-reaction-time,1,R,5,1,7,2314,0,3,335.30000001192093,413,L
2023-04-11T22:48:47Z,qh2z8vvu,serial-reaction-time,1,P,5,1,8,2314,0,4,388.10000002384186,134,H
2023-04-11T22:48:47Z,qh2z8vvu,serial-reaction-time,1,R,5,1,9,2314,0,1,279.0999999642372,341,H
2023-04-11T22:48:47Z,qh2z8vvu,serial-reaction-time,1,P,5,1,10,2314,0,2,339,412,H
2023-04-11T22:48:48Z,qh2z8vvu,serial-reaction-time,1,R,5,1,11,2314,0,4,411.800000011921,124,H
2023-04-11T22:48:49Z,qh2z8vvu,serial-reaction-time,1,P,5,1,12,2314,0,3,450.9000000357628,243,H
2023-04-11T22:48:49Z,qh2z8vvu,serial-reaction-time,1,R,5,1,13,2314,0,3,344.89999997615814,433,L
2023-04-11T22:48:49Z,qh2z8vvu,serial-reaction-time,1,P,5,1,14,2314,0,1,332.4000000357628,331,H
2023-04-11T22:48:50Z,qh2z8vvu,serial-reaction-time,1,R,5,1,15,2314,0,1,379.5999999642372,311,H
2023-04-11T22:48:51Z,qh2z8vvu,serial-reaction-time,1,P,5,1,16,2314,0,4,395,114,H
2023-04-11T22:48:51Z,qh2z8vvu,serial-reaction-time,1,R,5,1,17,2314,0,3,447,143,L
2023-04-11T22:48:52Z,qh2z8vvu,serial-reaction-time,1,P,5,1,18,2314,0,2,312.19999998807907,432,H
2023-04-11T22:48:52Z,qh2z8vvu,serial-reaction-time,1,R,5,1,19,2314,0,1,298.39999997615814,321,H
2023-04-11T22:48:52Z,qh2z8vvu,serial-reaction-time,1,P,5,1,20,2314,0,3,305.10000002384186,213,H
2023-04-11T22:48:53Z,qh2z8vvu,serial-reaction-time,1,R,5,1,21,2314,0,2,388.10000002384186,132,L
2023-04-11T22:48:53Z,qh2z8vvu,serial-reaction-time,1,P,5,1,22,2314,0,1,367.199999988079,321,H
2023-04-11T22:48:54Z,qh2z8vvu,serial-reaction-time,1,R,5,1,23,2314,0,4,344.80000001192093,214,L
2023-04-11T22:48:54Z,qh2z8vvu,serial-reaction-time,1,P,5,1,24,2314,0,4,491.199999988079,144,H
2023-04-11T22:48:55Z,qh2z8vvu,serial-reaction-time,1,R,5,1,25,2314,0,3,435.9000000357628,443,L
2023-04-11T22:48:56Z,qh2z8vvu,serial-reaction-time,1,P,5,1,26,2314,0,2,380.2999999523163,432,H
2023-04-11T22:48:56Z,qh2z8vvu,serial-reaction-time,1,R,5,1,27,2314,0,4,333.69999998807907,324,L
2023-04-11T22:48:56Z,qh2z8vvu,serial-reaction-time,1,P,5,1,28,2314,0,3,362.800000011921,243,H
2023-04-11T22:48:57Z,qh2z8vvu,serial-reaction-time,1,R,5,1,29,2314,0,1,362.199999988079,431,L
2023-04-11T22:48:57Z,qh2z8vvu,serial-reaction-time,1,P,5,1,30,2314,0,1,371.199999988079,311,H
2023-04-11T22:48:58Z,qh2z8vvu,serial-reaction-time,1,R,5,1,31,2314,0,2,417.4000000357628,112,L
2023-04-11T22:48:59Z,qh2z8vvu,serial-reaction-time,1,P,5,1,32,2314,0,4,427.39999997615814,124,H
2023-04-11T22:48:59Z,qh2z8vvu,serial-reaction-time,1,R,5,1,33,2314,0,2,316.39999997615814,242,T
2023-04-11T22:48:59Z,qh2z8vvu,serial-reaction-time,1,P,5,1,34,2314,0,2,339.39999997615814,422,H
2023-04-11T22:49:00Z,qh2z8vvu,serial-reaction-time,1,R,5,1,35,2314,0,4,458.5999999642372,224,L
2023-04-11T22:49:00Z,qh2z8vvu,serial-reaction-time,NA,P,5,1,36,2314,0,3,304.30000001192093,243,H
2023-04-11T22:49:01Z,qh2z8vvu,serial-reaction-time,1,P,5,0,36,2314,0,3,406.9000000357628,243,H
2023-04-11T22:49:01Z,qh2z8vvu,serial-reaction-time,1,R,5,1,37,2314,0,2,398.89999997615814,432,H
2023-04-11T22:49:02Z,qh2z8vvu,serial-reaction-time,1,P,5,1,38,2314,0,1,389,321,H
2023-04-11T22:49:02Z,qh2z8vvu,serial-reaction-time,NA,R,5,1,39,2314,0,4,281.19999998807907,214,L
2023-04-11T22:49:02Z,qh2z8vvu,serial-reaction-time,1,R,5,0,39,2314,0,4,630.9999999403954,214,L
2023-04-11T22:49:03Z,qh2z8vvu,serial-reaction-time,1,P,5,1,40,2314,0,4,296.4000000357628,144,H
2023-04-11T22:49:03Z,qh2z8vvu,serial-reaction-time,1,R,5,1,41,2314,0,4,361.300000011921,444,R
2023-04-11T22:49:04Z,qh2z8vvu,serial-reaction-time,1,P,5,1,42,2314,0,2,395.7999999523163,442,H
2023-04-11T22:49:04Z,qh2z8vvu,serial-reaction-time,1,R,5,1,43,2314,0,3,428.5,423,L
2023-04-11T22:49:05Z,qh2z8vvu,serial-reaction-time,1,P,5,1,44,2314,0,3,318.7000000476837,233,H
2023-04-11T22:49:05Z,qh2z8vvu,serial-reaction-time,1,R,5,1,45,2314,0,3,359.89999997615814,333,R
2023-04-11T22:49:06Z,qh2z8vvu,serial-reaction-time,1,P,5,1,46,2314,0,1,323,331,H
2023-04-11T22:49:06Z,qh2z8vvu,serial-reaction-time,1,R,5,1,47,2314,0,3,396.5,313,T
2023-04-11T22:49:07Z,qh2z8vvu,serial-reaction-time,1,P,5,1,48,2314,0,4,365.39999997615814,134,H
2023-04-11T22:49:07Z,qh2z8vvu,serial-reaction-time,1,R,5,1,49,2314,0,2,336.69999998807907,342,L
2023-04-11T22:49:08Z,qh2z8vvu,serial-reaction-time,1,P,5,1,50,2314,0,2,351.80000001192093,422,H
2023-04-11T22:49:08Z,qh2z8vvu,serial-reaction-time,1,R,5,1,51,2314,0,4,339.89999997615814,224,L
2023-04-11T22:49:09Z,qh2z8vvu,serial-reaction-time,1,P,5,1,52,2314,0,3,420.4000000357628,243,H
2023-04-11T22:49:09Z,qh2z8vvu,serial-reaction-time,1,R,5,1,53,2314,0,4,380.2000000476837,434,T
2023-04-11T22:49:10Z,qh2z8vvu,serial-reaction-time,NA,P,5,1,54,2314,0,1,330.10000002384186,341,H
2023-04-11T22:49:10Z,qh2z8vvu,serial-reaction-time,1,P,5,0,54,2314,0,1,372.300000011921,341,H
2023-04-11T22:49:10Z,qh2z8vvu,serial-reaction-time,1,R,5,1,55,2314,0,3,394.9000000357628,413,L
2023-04-11T22:49:11Z,qh2z8vvu,serial-reaction-time,1,P,5,1,56,2314,0,4,395.39999997615814,134,H
2023-04-11T22:49:11Z,qh2z8vvu,serial-reaction-time,1,R,5,1,57,2314,0,1,355.60000002384186,341,H
2023-04-11T22:49:12Z,qh2z8vvu,serial-reaction-time,NA,P,5,1,58,2314,0,2,333,412,H
2023-04-11T22:49:12Z,qh2z8vvu,serial-reaction-time,1,P,5,0,58,2314,0,2,650.8999999761581,412,H
2023-04-11T22:49:13Z,qh2z8vvu,serial-reaction-time,1,R,5,1,59,2314,0,4,355,124,H
2023-04-11T22:49:13Z,qh2z8vvu,serial-reaction-time,1,P,5,1,60,2314,0,3,411.5,243,H
2023-04-11T22:49:14Z,qh2z8vvu,serial-reaction-time,1,R,5,1,61,2314,0,4,461.5,434,T
2023-04-11T22:49:14Z,qh2z8vvu,serial-reaction-time,NA,P,5,1,62,2314,0,1,320.10000002384186,341,H
2023-04-11T22:49:14Z,qh2z8vvu,serial-reaction-time,1,P,5,0,62,2314,0,1,368.60000002384186,341,H
2023-04-11T22:49:15Z,qh2z8vvu,serial-reaction-time,1,R,5,1,63,2314,0,4,409.199999988079,414,T
2023-04-11T22:49:15Z,qh2z8vvu,serial-reaction-time,1,P,5,1,64,2314,0,4,341.89999997615814,144,H
2023-04-11T22:49:16Z,qh2z8vvu,serial-reaction-time,1,R,5,1,65,2314,0,1,346.4000000357628,441,L
2023-04-11T22:49:16Z,qh2z8vvu,serial-reaction-time,1,P,5,1,66,2314,0,2,462.39999997615814,412,H
2023-04-11T22:49:17Z,qh2z8vvu,serial-reaction-time,1,R,5,1,67,2314,0,1,414.5,121,T
2023-04-11T22:49:17Z,qh2z8vvu,serial-reaction-time,1,P,5,1,68,2314,0,3,387,213,H
2023-04-11T22:49:18Z,qh2z8vvu,serial-reaction-time,NA,R,5,1,69,2314,0,2,388.800000011921,132,L
2023-04-11T22:49:18Z,qh2z8vvu,serial-reaction-time,1,R,5,0,69,2314,0,2,590.9000000357628,132,L
2023-04-11T22:49:19Z,qh2z8vvu,serial-reaction-time,1,P,5,1,70,2314,0,1,329.69999998807907,321,H
2023-04-11T22:49:19Z,qh2z8vvu,serial-reaction-time,NA,R,5,1,71,2314,0,3,595.9000000357628,213,H
2023-04-11T22:49:19Z,qh2z8vvu,serial-reaction-time,1,R,5,0,71,2314,0,3,680.8000000715256,213,H
2023-04-11T22:49:20Z,qh2z8vvu,serial-reaction-time,1,P,5,1,72,2314,0,4,419.60000002384186,134,H
2023-04-11T22:49:20Z,qh2z8vvu,serial-reaction-time,NA,R,5,1,73,2314,0,2,307.10000002384186,342,L
2023-04-11T22:49:21Z,qh2z8vvu,serial-reaction-time,1,R,5,0,73,2314,0,2,496,342,L
2023-04-11T22:49:21Z,qh2z8vvu,serial-reaction-time,1,P,5,1,74,2314,0,2,308,422,H
2023-04-11T22:49:21Z,qh2z8vvu,serial-reaction-time,1,R,5,1,75,2314,0,1,356.19999998807907,221,L
2023-04-11T22:49:22Z,qh2z8vvu,serial-reaction-time,NA,P,5,1,76,2314,0,3,320.5,213,H
2023-04-11T22:49:22Z,qh2z8vvu,serial-reaction-time,1,P,5,0,76,2314,0,3,488.89999997615814,213,H
2023-04-11T22:49:23Z,qh2z8vvu,serial-reaction-time,1,R,5,1,77,2314,0,3,337.39999997615814,133,L
2023-04-11T22:49:23Z,qh2z8vvu,serial-reaction-time,1,P,5,1,78,2314,0,1,315.2000000476837,331,H
2023-04-11T22:49:23Z,qh2z8vvu,serial-reaction-time,NA,R,5,1,79,2314,0,4,323.69999998807907,314,L
2023-04-11T22:49:24Z,qh2z8vvu,serial-reaction-time,1,R,5,0,79,2314,0,4,464.2999999523163,314,L
2023-04-11T22:49:24Z,qh2z8vvu,serial-reaction-time,1,P,5,1,80,2314,0,4,347,144,H
2023-04-11T22:49:29Z,qh2z8vvu,html-keyboard-response,NA,NA,NA,NA,NA,NA,NA,NA,NA,NA,NA
2023-04-11T22:49:30Z,qh2z8vvu,html-keyboard-response,NA,NA,NA,NA,NA,NA,NA,NA,NA,NA,NA
2023-04-11T22:49:31Z,qh2z8vvu,fullscreen,NA,NA,NA,NA,NA,NA,NA,NA,NA,NA,NA
2023-04-12T14:53:23Z,tlzx847n,fullscreen,NA,NA,NA,NA,NA,NA,NA,NA,NA,NA,NA
2023-04-12T14:53:25Z,tlzx847n,html-keyboard-response,NA,NA,NA,NA,NA,NA,NA,NA,NA,NA,NA
2023-04-12T14:53:27Z,tlzx847n,serial-reaction-time,1,R,1,1,1,4231,0,1,823,1,X
2023-04-12T14:53:27Z,tlzx847n,serial-reaction-time,1,P,1,1,2,4231,0,4,310.59999990463257,14,X
2023-04-12T14:53:27Z,tlzx847n,serial-reaction-time,1,R,1,1,3,4231,0,4,300.10000014305115,144,H
2023-04-12T14:53:28Z,tlzx847n,serial-reaction-time,1,P,1,1,4,4231,0,2,297.59999990463257,442,H
2023-04-12T14:53:28Z,tlzx847n,serial-reaction-time,NA,R,1,1,5,4231,0,3,181.70000004768372,423,L
2023-04-12T14:53:28Z,tlzx847n,serial-reaction-time,1,R,1,0,5,4231,0,3,362.10000014305115,423,L
2023-04-12T14:53:29Z,tlzx847n,serial-reaction-time,1,P,1,1,6,4231,0,3,211.5,233,H
2023-04-12T14:53:29Z,tlzx847n,serial-reaction-time,1,R,1,1,7,4231,0,2,298.19999980926514,332,L
2023-04-12T14:53:29Z,tlzx847n,serial-reaction-time,NA,P,1,1,8,4231,0,1,229.70000004768372,321,H
2023-04-12T14:53:30Z,tlzx847n,serial-reaction-time,1,P,1,0,8,4231,0,1,386.10000014305115,321,H
2023-04-12T14:53:30Z,tlzx847n,serial-reaction-time,1,R,1,1,9,4231,0,2,294.2999999523163,212,T
2023-04-12T14:53:31Z,tlzx847n,serial-reaction-time,1,P,1,1,10,4231,0,4,332.5,124,H
2023-04-12T14:53:31Z,tlzx847n,serial-reaction-time,NA,R,1,1,11,4231,0,2,268.5,242,T
2023-04-12T14:53:31Z,tlzx847n,serial-reaction-time,1,R,1,0,11,4231,0,2,482,242,T
2023-04-12T14:53:32Z,tlzx847n,serial-reaction-time,1,P,1,1,12,4231,0,2,253.29999995231628,422,H
2023-04-12T14:53:32Z,tlzx847n,serial-reaction-time,1,R,1,1,13,4231,0,2,296.39999985694885,222,R
2023-04-12T14:53:32Z,tlzx847n,serial-reaction-time,NA,P,1,1,14,4231,0,3,148,223,H
2023-04-12T14:53:32Z,tlzx847n,serial-reaction-time,1,P,1,0,14,4231,0,3,373.2999999523163,223,H
2023-04-12T14:53:33Z,tlzx847n,serial-reaction-time,1,R,1,1,15,4231,0,1,346.5,231,L
2023-04-12T14:53:33Z,tlzx847n,serial-reaction-time,1,P,1,1,16,4231,0,1,267.7000000476837,311,H
2023-04-12T14:53:34Z,tlzx847n,serial-reaction-time,1,R,1,1,17,4231,0,1,322.89999985694885,111,R
2023-04-12T14:53:34Z,tlzx847n,serial-reaction-time,NA,P,1,1,18,4231,0,4,222.89999985694885,114,H
2023-04-12T14:53:34Z,tlzx847n,serial-reaction-time,1,P,1,0,18,4231,0,4,319.69999980926514,114,H
2023-04-12T14:53:35Z,tlzx847n,serial-reaction-time,1,R,1,1,19,4231,0,1,330.5,141,T
2023-04-12T14:53:35Z,tlzx847n,serial-reaction-time,1,P,1,1,20,4231,0,2,374,412,H
2023-04-12T14:53:36Z,tlzx847n,serial-reaction-time,1,R,1,1,21,4231,0,2,222.70000004768372,122,L
2023-04-12T14:53:36Z,tlzx847n,serial-reaction-time,1,P,1,1,22,4231,0,3,310.7999999523163,223,H
2023-04-12T14:53:36Z,tlzx847n,serial-reaction-time,NA,R,1,1,23,4231,0,2,248.29999995231628,232,T
2023-04-12T14:53:37Z,tlzx847n,serial-reaction-time,1,R,1,0,23,4231,0,2,354.2000000476837,232,T
2023-04-12T14:53:37Z,tlzx847n,serial-reaction-time,1,P,1,1,24,4231,0,1,487.10000014305115,321,H
2023-04-12T14:53:38Z,tlzx847n,serial-reaction-time,NA,R,1,1,25,4231,0,2,210.5,212,T
2023-04-12T14:53:38Z,tlzx847n,serial-reaction-time,1,R,1,0,25,4231,0,2,418.7999999523163,212,T
2023-04-12T14:53:38Z,tlzx847n,serial-reaction-time,1,P,1,1,26,4231,0,4,353.19999980926514,124,H
2023-04-12T14:53:39Z,tlzx847n,serial-reaction-time,1,R,1,1,27,4231,0,2,283.59999990463257,242,T
2023-04-12T14:53:39Z,tlzx847n,serial-reaction-time,1,P,1,1,28,4231,0,2,308.39999985694885,422,H
2023-04-12T14:53:40Z,tlzx847n,serial-reaction-time,1,R,1,1,29,4231,0,4,368.40000009536743,224,L
2023-04-12T14:53:40Z,tlzx847n,serial-reaction-time,NA,P,1,1,30,4231,0,3,293.7000000476837,243,H
2023-04-12T14:53:40Z,tlzx847n,serial-reaction-time,1,P,1,0,30,4231,0,3,524.4000000953674,243,H
2023-04-12T14:53:41Z,tlzx847n,serial-reaction-time,NA,R,1,1,31,4231,0,4,323.59999990463257,434,T
2023-04-12T14:53:41Z,tlzx847n,serial-reaction-time,1,R,1,0,31,4231,0,4,502.59999990463257,434,T
2023-04-12T14:53:41Z,tlzx847n,serial-reaction-time,1,P,1,1,32,4231,0,1,306.90000009536743,341,H
2023-04-12T14:53:42Z,tlzx847n,serial-reaction-time,1,R,1,1,33,4231,0,1,452.10000014305115,411,L
2023-04-12T14:53:42Z,tlzx847n,serial-reaction-time,NA,P,1,1,34,4231,0,4,362,114,H
2023-04-12T14:53:43Z,tlzx847n,serial-reaction-time,1,P,1,0,34,4231,0,4,534.7999999523163,114,H
2023-04-12T14:53:43Z,tlzx847n,serial-reaction-time,1,R,1,1,35,4231,0,4,238.59999990463257,144,H
2023-04-12T14:53:43Z,tlzx847n,serial-reaction-time,NA,P,1,1,36,4231,0,2,325.80000019073486,442,H
2023-04-12T14:53:44Z,tlzx847n,serial-reaction-time,1,P,1,0,36,4231,0,2,649.1000003814697,442,H
2023-04-12T14:53:46Z,tlzx847n,serial-reaction-time,1,R,1,1,37,4231,0,3,1769.1000001430511,423,L
2023-04-12T14:53:46Z,tlzx847n,serial-reaction-time,1,P,1,1,38,4231,0,3,200.09999990463257,233,H
2023-04-12T14:53:47Z,tlzx847n,serial-reaction-time,1,R,1,1,39,4231,0,2,356.89999985694885,332,L
2023-04-12T14:53:47Z,tlzx847n,serial-reaction-time,NA,P,1,1,40,4231,0,1,111.90000009536745,321,H
2023-04-12T14:53:47Z,tlzx847n,serial-reaction-time,1,P,1,0,40,4231,0,1,342.2000000476837,321,H
2023-04-12T14:53:48Z,tlzx847n,serial-reaction-time,1,R,1,1,41,4231,0,4,480.7000000476837,214,L
2023-04-12T14:53:49Z,tlzx847n,serial-reaction-time,NA,P,1,1,42,4231,0,4,1155.5,144,H
2023-04-12T14:53:49Z,tlzx847n,serial-reaction-time,1,P,1,0,42,4231,0,4,1414.2999999523165,144,H
2023-04-12T14:53:50Z,tlzx847n,serial-reaction-time,1,R,1,1,43,4231,0,2,422,442,H
2023-04-12T14:53:50Z,tlzx847n,serial-reaction-time,1,P,1,1,44,4231,0,2,233.59999990463257,422,H
2023-04-12T14:53:51Z,tlzx847n,serial-reaction-time,1,R,1,1,45,4231,0,2,261.60000014305115,222,R
2023-04-12T14:53:51Z,tlzx847n,serial-reaction-time,1,P,1,1,46,4231,0,3,309.7999999523163,223,H
2023-04-12T14:53:51Z,tlzx847n,serial-reaction-time,NA,R,1,1,47,4231,0,2,58.30000019073486,232,T
2023-04-12T14:53:51Z,tlzx847n,serial-reaction-time,1,R,1,0,47,4231,0,2,308.60000014305115,232,T
2023-04-12T14:53:52Z,tlzx847n,serial-reaction-time,NA,P,1,1,48,4231,0,1,225.90000009536743,321,H
2023-04-12T14:53:52Z,tlzx847n,serial-reaction-time,1,P,1,0,48,4231,0,1,413.7999999523163,321,H
2023-04-12T14:53:52Z,tlzx847n,serial-reaction-time,NA,R,1,1,49,4231,0,3,326.89999985694885,213,H
2023-04-12T14:53:53Z,tlzx847n,serial-reaction-time,1,R,1,0,49,4231,0,3,464.59999990463257,213,H
2023-04-12T14:53:53Z,tlzx847n,serial-reaction-time,1,P,1,1,50,4231,0,4,375.10000014305115,134,H
2023-04-12T14:53:54Z,tlzx847n,serial-reaction-time,1,R,1,1,51,4231,0,3,305.7000000476837,343,T
2023-04-12T14:53:54Z,tlzx847n,serial-reaction-time,1,P,1,1,52,4231,0,2,326,432,H
2023-04-12T14:53:55Z,tlzx847n,serial-reaction-time,1,R,1,1,53,4231,0,3,340.5,323,T
2023-04-12T14:53:55Z,tlzx847n,serial-reaction-time,1,P,1,1,54,4231,0,3,313.09999990463257,233,H
2023-04-12T14:53:56Z,tlzx847n,serial-reaction-time,1,R,1,1,55,4231,0,2,459.5,332,L
2023-04-12T14:53:56Z,tlzx847n,serial-reaction-time,NA,P,1,1,56,4231,0,1,279.2000000476837,321,H
2023-04-12T14:53:56Z,tlzx847n,serial-reaction-time,1,P,1,0,56,4231,0,1,433.40000009536743,321,H
2023-04-12T14:53:57Z,tlzx847n,serial-reaction-time,NA,R,1,1,57,4231,0,3,300.59999990463257,213,H
2023-04-12T14:53:57Z,tlzx847n,serial-reaction-time,1,R,1,0,57,4231,0,3,515.1999998092651,213,H
2023-04-12T14:53:57Z,tlzx847n,serial-reaction-time,1,P,1,1,58,4231,0,4,357.69999980926514,134,H
2023-04-12T14:53:58Z,tlzx847n,serial-reaction-time,NA,R,1,1,59,4231,0,3,333,343,T
2023-04-12T14:53:58Z,tlzx847n,serial-reaction-time,1,R,1,0,59,4231,0,3,383.7999999523163,343,T
2023-04-12T14:53:58Z,tlzx847n,serial-reaction-time,1,P,1,1,60,4231,0,2,297.90000009536743,432,H
2023-04-12T14:53:59Z,tlzx847n,serial-reaction-time,1,R,1,1,61,4231,0,2,317.2000000476837,322,L
2023-04-12T14:53:59Z,tlzx847n,serial-reaction-time,1,P,1,1,62,4231,0,3,355.09999990463257,223,H
2023-04-12T14:54:00Z,tlzx847n,serial-reaction-time,1,R,1,1,63,4231,0,3,296.59999990463257,233,H
2023-04-12T14:54:00Z,tlzx847n,serial-reaction-time,1,P,1,1,64,4231,0,1,421.89999985694885,331,H
2023-04-12T14:54:01Z,tlzx847n,serial-reaction-time,1,R,1,1,65,4231,0,2,372.40000009536743,312,L
2023-04-12T14:54:01Z,tlzx847n,serial-reaction-time,NA,P,1,1,66,4231,0,4,341.7999999523163,124,H
2023-04-12T14:54:01Z,tlzx847n,serial-reaction-time,1,P,1,0,66,4231,0,4,520.4000000953674,124,H
2023-04-12T14:54:02Z,tlzx847n,serial-reaction-time,1,R,1,1,67,4231,0,3,411.7000000476837,243,H
2023-04-12T14:54:05Z,tlzx847n,serial-reaction-time,1,P,1,1,68,4231,0,2,3101.300000190735,432,H
2023-04-12T14:54:06Z,tlzx847n,serial-reaction-time,1,R,1,1,69,4231,0,4,421.59999990463257,324,L
2023-04-12T14:54:06Z,tlzx847n,serial-reaction-time,NA,P,1,1,70,4231,0,3,9,243,H
2023-04-12T14:54:06Z,tlzx847n,serial-reaction-time,1,P,1,0,70,4231,0,3,351,243,H
2023-04-12T14:54:07Z,tlzx847n,serial-reaction-time,1,R,1,1,71,4231,0,2,327.7000000476837,432,H
2023-04-12T14:54:07Z,tlzx847n,serial-reaction-time,1,P,1,1,72,4231,0,1,355.89999985694885,321,H
2023-04-12T14:54:08Z,tlzx847n,serial-reaction-time,1,R,1,1,73,4231,0,4,329.30000019073486,214,L
2023-04-12T14:54:08Z,tlzx847n,serial-reaction-time,1,P,1,1,74,4231,0,4,300.09999990463257,144,H
2023-04-12T14:54:09Z,tlzx847n,serial-reaction-time,NA,R,1,1,75,4231,0,1,325,441,L
2023-04-12T14:54:09Z,tlzx847n,serial-reaction-time,1,R,1,0,75,4231,0,1,556.5999999046326,441,L
2023-04-12T14:54:09Z,tlzx847n,serial-reaction-time,1,P,1,1,76,4231,0,2,403.7999999523163,412,H
2023-04-12T14:54:10Z,tlzx847n,serial-reaction-time,NA,R,1,1,77,4231,0,1,213.70000004768372,121,T
2023-04-12T14:54:10Z,tlzx847n,serial-reaction-time,1,R,1,0,77,4231,0,1,349.7000000476837,121,T
2023-04-12T14:54:10Z,tlzx847n,serial-reaction-time,1,P,1,1,78,4231,0,3,323.7000000476837,213,H
2023-04-12T14:54:11Z,tlzx847n,serial-reaction-time,1,R,1,1,79,4231,0,4,329.2000000476837,134,H
2023-04-12T14:54:11Z,tlzx847n,serial-reaction-time,NA,P,1,1,80,4231,0,1,344.60000014305115,341,H
2023-04-12T14:54:12Z,tlzx847n,serial-reaction-time,1,P,1,0,80,4231,0,1,563.1000001430511,341,H
2023-04-12T14:54:17Z,tlzx847n,html-keyboard-response,NA,NA,NA,NA,NA,NA,NA,NA,NA,NA,NA
2023-04-12T14:54:29Z,tlzx847n,html-keyboard-response,NA,NA,NA,NA,NA,NA,NA,NA,NA,NA,NA
2023-04-12T14:54:30Z,tlzx847n,html-keyboard-response,NA,NA,NA,NA,NA,NA,NA,NA,NA,NA,NA
2023-04-12T14:54:32Z,tlzx847n,serial-reaction-time,1,R,2,1,1,4231,0,3,785.5,3,X
2023-04-12T14:54:32Z,tlzx847n,serial-reaction-time,1,P,2,1,2,4231,0,4,350.39999985694885,34,X
2023-04-12T14:54:33Z,tlzx847n,serial-reaction-time,1,R,2,1,3,4231,0,2,353.89999985694885,342,L
2023-04-12T14:54:33Z,tlzx847n,serial-reaction-time,1,P,2,1,4,4231,0,2,344.59999990463257,422,H
2023-04-12T14:54:34Z,tlzx847n,serial-reaction-time,1,R,2,1,5,4231,0,1,407,221,L
2023-04-12T14:54:35Z,tlzx847n,serial-reaction-time,1,P,2,1,6,4231,0,3,511,213,H
2023-04-12T14:54:35Z,tlzx847n,serial-reaction-time,1,R,2,1,7,4231,0,1,486.89999985694885,131,T
2023-04-12T14:54:36Z,tlzx847n,serial-reaction-time,1,P,2,1,8,4231,0,1,465.89999985694885,311,H
2023-04-12T14:54:36Z,tlzx847n,serial-reaction-time,1,R,2,1,9,4231,0,3,432.69999980926514,113,L
2023-04-12T14:54:37Z,tlzx847n,serial-reaction-time,1,P,2,1,10,4231,0,4,424.90000009536743,134,H
2023-04-12T14:54:38Z,tlzx847n,serial-reaction-time,1,R,2,1,11,4231,0,1,460.09999990463257,341,H
2023-04-12T14:54:38Z,tlzx847n,serial-reaction-time,1,P,2,1,12,4231,0,2,451.10000014305115,412,H
2023-04-12T14:54:39Z,tlzx847n,serial-reaction-time,1,R,2,1,13,4231,0,1,445.60000014305115,121,T
2023-04-12T14:54:39Z,tlzx847n,serial-reaction-time,1,P,2,1,14,4231,0,3,474.5,213,H
2023-04-12T14:54:40Z,tlzx847n,serial-reaction-time,1,R,2,1,15,4231,0,2,356.2000000476837,132,L
2023-04-12T14:54:40Z,tlzx847n,serial-reaction-time,1,P,2,1,16,4231,0,1,319.2999999523163,321,H
2023-04-12T14:54:41Z,tlzx847n,serial-reaction-time,1,R,2,1,17,4231,0,3,383.60000014305115,213,H
2023-04-12T14:54:41Z,tlzx847n,serial-reaction-time,1,P,2,1,18,4231,0,4,448.19999980926514,134,H
2023-04-12T14:54:42Z,tlzx847n,serial-reaction-time,1,R,2,1,19,4231,0,1,420.5,341,H
2023-04-12T14:54:42Z,tlzx847n,serial-reaction-time,1,P,2,1,20,4231,0,2,379.09999990463257,412,H
2023-04-12T14:54:43Z,tlzx847n,serial-reaction-time,1,R,2,1,21,4231,0,4,390.59999990463257,124,H
2023-04-12T14:54:44Z,tlzx847n,serial-reaction-time,1,P,2,1,22,4231,0,3,360.39999985694885,243,H
2023-04-12T14:54:44Z,tlzx847n,serial-reaction-time,1,R,2,1,23,4231,0,2,352,432,H
2023-04-12T14:54:45Z,tlzx847n,serial-reaction-time,1,P,2,1,24,4231,0,1,363.69999980926514,321,H
2023-04-12T14:54:45Z,tlzx847n,serial-reaction-time,1,R,2,1,25,4231,0,2,374.09999990463257,212,T
2023-04-12T14:54:46Z,tlzx847n,serial-reaction-time,1,P,2,1,26,4231,0,4,380.7999999523163,124,H
2023-04-12T14:54:46Z,tlzx847n,serial-reaction-time,1,R,2,1,27,4231,0,1,407.10000014305115,241,L
2023-04-12T14:54:47Z,tlzx847n,serial-reaction-time,1,P,2,1,28,4231,0,2,373,412,H
2023-04-12T14:54:47Z,tlzx847n,serial-reaction-time,1,R,2,1,29,4231,0,2,381.2999999523163,122,L
2023-04-12T14:54:48Z,tlzx847n,serial-reaction-time,1,P,2,1,30,4231,0,3,396.2000000476837,223,H
2023-04-12T14:54:48Z,tlzx847n,serial-reaction-time,1,R,2,1,31,4231,0,1,403,231,L
2023-04-12T14:54:49Z,tlzx847n,serial-reaction-time,1,P,2,1,32,4231,0,1,393.2000000476837,311,H
2023-04-12T14:54:49Z,tlzx847n,serial-reaction-time,1,R,2,1,33,4231,0,4,373.5,114,H
2023-04-12T14:54:50Z,tlzx847n,serial-reaction-time,1,P,2,1,34,4231,0,4,462.39999985694885,144,H
2023-04-12T14:54:50Z,tlzx847n,serial-reaction-time,1,R,2,1,35,4231,0,3,439.5,443,L
2023-04-12T14:54:51Z,tlzx847n,serial-reaction-time,1,P,2,1,36,4231,0,2,343.7000000476837,432,H
2023-04-12T14:54:51Z,tlzx847n,serial-reaction-time,1,R,2,1,37,4231,0,2,356.59999990463257,322,L
2023-04-12T14:54:52Z,tlzx847n,serial-reaction-time,1,P,2,1,38,4231,0,3,364.7999999523163,223,H
2023-04-12T14:54:53Z,tlzx847n,serial-reaction-time,1,R,2,1,39,4231,0,1,409.10000014305115,231,L
2023-04-12T14:54:53Z,tlzx847n,serial-reaction-time,1,P,2,1,40,4231,0,1,393.10000014305115,311,H
2023-04-12T14:54:54Z,tlzx847n,serial-reaction-time,1,R,2,1,41,4231,0,2,412.40000009536743,112,L
2023-04-12T14:54:54Z,tlzx847n,serial-reaction-time,1,P,2,1,42,4231,0,4,508.30000019073486,124,H
2023-04-12T14:54:55Z,tlzx847n,serial-reaction-time,1,R,2,1,43,4231,0,4,355.5,244,L
2023-04-12T14:54:55Z,tlzx847n,serial-reaction-time,1,P,2,1,44,4231,0,2,383.40000009536743,442,H
2023-04-12T14:54:56Z,tlzx847n,serial-reaction-time,1,R,2,1,45,4231,0,2,325.90000009536743,422,H
2023-04-12T14:54:56Z,tlzx847n,serial-reaction-time,1,P,2,1,46,4231,0,3,388.7999999523163,223,H
2023-04-12T14:54:57Z,tlzx847n,serial-reaction-time,1,R,2,1,47,4231,0,4,373.7000000476837,234,L
2023-04-12T14:54:57Z,tlzx847n,serial-reaction-time,1,P,2,1,48,4231,0,1,459.90000009536743,341,H
2023-04-12T14:54:58Z,tlzx847n,serial-reaction-time,1,R,2,1,49,4231,0,2,379.90000009536743,412,H
2023-04-12T14:54:58Z,tlzx847n,serial-reaction-time,NA,P,2,1,50,4231,0,4,405.60000014305115,124,H
2023-04-12T14:54:59Z,tlzx847n,serial-reaction-time,1,P,2,0,50,4231,0,4,781.6000001430511,124,H
2023-04-12T14:54:59Z,tlzx847n,serial-reaction-time,1,R,2,1,51,4231,0,2,492.7000000476837,242,T
2023-04-12T14:55:00Z,tlzx847n,serial-reaction-time,1,P,2,1,52,4231,0,2,653.9000000953674,422,H
2023-04-12T14:55:01Z,tlzx847n,serial-reaction-time,1,R,2,1,53,4231,0,2,350,222,R
2023-04-12T14:55:01Z,tlzx847n,serial-reaction-time,1,P,2,1,54,4231,0,3,442.2999999523163,223,H
2023-04-12T14:55:02Z,tlzx847n,serial-reaction-time,1,R,2,1,55,4231,0,2,410.5,232,T
2023-04-12T14:55:03Z,tlzx847n,serial-reaction-time,1,P,2,1,56,4231,0,1,470.7000000476837,321,H
2023-04-12T14:55:04Z,tlzx847n,serial-reaction-time,1,R,2,1,57,4231,0,3,1007.0999999046326,213,H
2023-04-12T14:55:04Z,tlzx847n,serial-reaction-time,1,P,2,1,58,4231,0,4,432.80000019073486,134,H
2023-04-12T14:55:05Z,tlzx847n,serial-reaction-time,1,R,2,1,59,4231,0,2,465.09999990463257,342,L
2023-04-12T14:55:05Z,tlzx847n,serial-reaction-time,1,P,2,1,60,4231,0,2,293.60000014305115,422,H
2023-04-12T14:55:06Z,tlzx847n,serial-reaction-time,1,R,2,1,61,4231,0,3,407.40000009536743,223,H
2023-04-12T14:55:06Z,tlzx847n,serial-reaction-time,1,P,2,1,62,4231,0,3,393,233,H
2023-04-12T14:55:07Z,tlzx847n,serial-reaction-time,1,R,2,1,63,4231,0,2,425.5,332,L
2023-04-12T14:55:08Z,tlzx847n,serial-reaction-time,1,P,2,1,64,4231,0,1,400.2999999523163,321,H
2023-04-12T14:55:08Z,tlzx847n,serial-reaction-time,1,R,2,1,65,4231,0,1,511.89999985694885,211,L
2023-04-12T14:55:09Z,tlzx847n,serial-reaction-time,1,P,2,1,66,4231,0,4,477.89999985694885,114,H
2023-04-12T14:55:09Z,tlzx847n,serial-reaction-time,1,R,2,1,67,4231,0,3,414.2000000476837,143,L
2023-04-12T14:55:10Z,tlzx847n,serial-reaction-time,1,P,2,1,68,4231,0,2,335.2999999523163,432,H
2023-04-12T14:55:10Z,tlzx847n,serial-reaction-time,1,R,2,1,69,4231,0,2,393,322,L
2023-04-12T14:55:11Z,tlzx847n,serial-reaction-time,1,P,2,1,70,4231,0,3,487.09999990463257,223,H
2023-04-12T14:55:12Z,tlzx847n,serial-reaction-time,1,R,2,1,71,4231,0,4,556,234,L
2023-04-12T14:55:12Z,tlzx847n,serial-reaction-time,1,P,2,1,72,4231,0,1,617.8000001907349,341,H
2023-04-12T14:55:13Z,tlzx847n,serial-reaction-time,1,R,2,1,73,4231,0,3,440.7999999523163,413,L
2023-04-12T14:55:14Z,tlzx847n,serial-reaction-time,1,P,2,1,74,4231,0,4,401,134,H
2023-04-12T14:55:14Z,tlzx847n,serial-reaction-time,1,R,2,1,75,4231,0,3,477.5,343,T
2023-04-12T14:55:15Z,tlzx847n,serial-reaction-time,NA,P,2,1,76,4231,0,2,417.7000000476837,432,H
2023-04-12T14:55:15Z,tlzx847n,serial-reaction-time,1,P,2,0,76,4231,0,2,777,432,H
2023-04-12T14:55:16Z,tlzx847n,serial-reaction-time,1,R,2,1,77,4231,0,2,339.2000000476837,322,L
2023-04-12T14:55:16Z,tlzx847n,serial-reaction-time,1,P,2,1,78,4231,0,3,353.2000000476837,223,H
2023-04-12T14:55:17Z,tlzx847n,serial-reaction-time,1,R,2,1,79,4231,0,3,322.5,233,H
2023-04-12T14:55:17Z,tlzx847n,serial-reaction-time,1,P,2,1,80,4231,0,1,452.89999985694885,331,H
2023-04-12T14:55:22Z,tlzx847n,html-keyboard-response,NA,NA,NA,NA,NA,NA,NA,NA,NA,NA,NA
2023-04-12T14:55:25Z,tlzx847n,html-keyboard-response,NA,NA,NA,NA,NA,NA,NA,NA,NA,NA,NA
2023-04-12T14:55:27Z,tlzx847n,serial-reaction-time,1,R,3,1,1,4231,0,3,939.5,3,X
2023-04-12T14:55:27Z,tlzx847n,serial-reaction-time,1,P,3,1,2,4231,0,4,358.7000000476837,34,X
2023-04-12T14:55:28Z,tlzx847n,serial-reaction-time,1,R,3,1,3,4231,0,3,291.80000019073486,343,T
2023-04-12T14:55:28Z,tlzx847n,serial-reaction-time,1,P,3,1,4,4231,0,2,392.09999990463257,432,H
2023-04-12T14:55:29Z,tlzx847n,serial-reaction-time,1,R,3,1,5,4231,0,3,364.59999990463257,323,T
2023-04-12T14:55:29Z,tlzx847n,serial-reaction-time,1,P,3,1,6,4231,0,3,348.89999985694885,233,H
2023-04-12T14:55:30Z,tlzx847n,serial-reaction-time,1,R,3,1,7,4231,0,4,389.7999999523163,334,L
2023-04-12T14:55:30Z,tlzx847n,serial-reaction-time,1,P,3,1,8,4231,0,1,388.30000019073486,341,H
2023-04-12T14:55:31Z,tlzx847n,serial-reaction-time,1,R,3,1,9,4231,0,1,305.7999999523163,411,L
2023-04-12T14:55:31Z,tlzx847n,serial-reaction-time,1,P,3,1,10,4231,0,4,437.60000014305115,114,H
2023-04-12T14:55:32Z,tlzx847n,serial-reaction-time,1,R,3,1,11,4231,0,3,371.5,143,L
2023-04-12T14:55:33Z,tlzx847n,serial-reaction-time,1,P,3,1,12,4231,0,2,421,432,H
2023-04-12T14:55:33Z,tlzx847n,serial-reaction-time,1,R,3,1,13,4231,0,1,422.2999999523163,321,H
2023-04-12T14:55:34Z,tlzx847n,serial-reaction-time,1,P,3,1,14,4231,0,3,382.09999990463257,213,H
2023-04-12T14:55:34Z,tlzx847n,serial-reaction-time,1,R,3,1,15,4231,0,2,358,132,L
2023-04-12T14:55:35Z,tlzx847n,serial-reaction-time,1,P,3,1,16,4231,0,1,417,321,H
2023-04-12T14:55:35Z,tlzx847n,serial-reaction-time,1,R,3,1,17,4231,0,1,455.7000000476837,211,L
2023-04-12T14:55:36Z,tlzx847n,serial-reaction-time,1,P,3,1,18,4231,0,4,404.09999990463257,114,H
2023-04-12T14:55:36Z,tlzx847n,serial-reaction-time,1,R,3,1,19,4231,0,4,380.7000000476837,144,H
2023-04-12T14:55:37Z,tlzx847n,serial-reaction-time,1,P,3,1,20,4231,0,2,665.6000001430511,442,H
2023-04-12T14:55:38Z,tlzx847n,serial-reaction-time,1,R,3,1,21,4231,0,4,372.7999999523163,424,T
2023-04-12T14:55:38Z,tlzx847n,serial-reaction-time,1,P,3,1,22,4231,0,3,409.2000000476837,243,H
2023-04-12T14:55:39Z,tlzx847n,serial-reaction-time,1,R,3,1,23,4231,0,1,398.5,431,L
2023-04-12T14:55:39Z,tlzx847n,serial-reaction-time,1,P,3,1,24,4231,0,1,472.39999985694885,311,H
2023-04-12T14:55:40Z,tlzx847n,serial-reaction-time,1,R,3,1,25,4231,0,2,461.5,112,L
2023-04-12T14:55:41Z,tlzx847n,serial-reaction-time,1,P,3,1,26,4231,0,4,381.7000000476837,124,H
2023-04-12T14:55:41Z,tlzx847n,serial-reaction-time,1,R,3,1,27,4231,0,3,515.2999999523163,243,H
2023-04-12T14:55:42Z,tlzx847n,serial-reaction-time,1,P,3,1,28,4231,0,2,469.30000019073486,432,H
2023-04-12T14:55:42Z,tlzx847n,serial-reaction-time,1,R,3,1,29,4231,0,1,343.60000014305115,321,H
2023-04-12T14:55:43Z,tlzx847n,serial-reaction-time,1,P,3,1,30,4231,0,3,400.7999999523163,213,H
2023-04-12T14:55:43Z,tlzx847n,serial-reaction-time,1,R,3,1,31,4231,0,1,412.39999985694885,131,T
2023-04-12T14:55:44Z,tlzx847n,serial-reaction-time,1,P,3,1,32,4231,0,1,346.5,311,H
2023-04-12T14:55:44Z,tlzx847n,serial-reaction-time,1,R,3,1,33,4231,0,3,398.7999999523163,113,L
2023-04-12T14:55:45Z,tlzx847n,serial-reaction-time,1,P,3,1,34,4231,0,4,450.39999985694885,134,H
2023-04-12T14:55:46Z,tlzx847n,serial-reaction-time,1,R,3,1,35,4231,0,4,400.5,344,L
2023-04-12T14:55:46Z,tlzx847n,serial-reaction-time,NA,P,3,1,36,4231,0,2,387.30000019073486,442,H
2023-04-12T14:55:46Z,tlzx847n,serial-reaction-time,1,P,3,0,36,4231,0,2,750.6000001430511,442,H
2023-04-12T14:55:47Z,tlzx847n,serial-reaction-time,1,R,3,1,37,4231,0,1,398.2000000476837,421,L
2023-04-12T14:55:48Z,tlzx847n,serial-reaction-time,1,P,3,1,38,4231,0,3,537.7999999523163,213,H
2023-04-12T14:55:48Z,tlzx847n,serial-reaction-time,1,R,3,1,39,4231,0,4,410,134,H
2023-04-12T14:55:49Z,tlzx847n,serial-reaction-time,1,P,3,1,40,4231,0,1,349,341,H
2023-04-12T14:55:49Z,tlzx847n,serial-reaction-time,1,R,3,1,41,4231,0,2,417.69999980926514,412,H
2023-04-12T14:55:50Z,tlzx847n,serial-reaction-time,1,P,3,1,42,4231,0,4,480.2000000476837,124,H
2023-04-12T14:55:50Z,tlzx847n,serial-reaction-time,1,R,3,1,43,4231,0,4,364,244,L
2023-04-12T14:55:51Z,tlzx847n,serial-reaction-time,1,P,3,1,44,4231,0,2,588.9000000953674,442,H
2023-04-12T14:55:52Z,tlzx847n,serial-reaction-time,1,R,3,1,45,4231,0,2,508.89999985694885,422,H
2023-04-12T14:55:52Z,tlzx847n,serial-reaction-time,1,P,3,1,46,4231,0,3,514.2000000476837,223,H
2023-04-12T14:55:53Z,tlzx847n,serial-reaction-time,1,R,3,1,47,4231,0,1,393.89999985694885,231,L
2023-04-12T14:55:53Z,tlzx847n,serial-reaction-time,1,P,3,1,48,4231,0,1,363.39999985694885,311,H
2023-04-12T14:55:54Z,tlzx847n,serial-reaction-time,1,R,3,1,49,4231,0,3,429.2999999523163,113,L
2023-04-12T14:55:55Z,tlzx847n,serial-reaction-time,1,P,3,1,50,4231,0,4,397.39999985694885,134,H
2023-04-12T14:55:55Z,tlzx847n,serial-reaction-time,1,R,3,1,51,4231,0,2,407.39999985694885,342,L
2023-04-12T14:55:56Z,tlzx847n,serial-reaction-time,1,P,3,1,52,4231,0,2,314.2999999523163,422,H
2023-04-12T14:55:56Z,tlzx847n,serial-reaction-time,1,R,3,1,53,4231,0,2,357.89999985694885,222,R
2023-04-12T14:55:57Z,tlzx847n,serial-reaction-time,1,P,3,1,54,4231,0,3,369.7000000476837,223,H
2023-04-12T14:55:57Z,tlzx847n,serial-reaction-time,1,R,3,1,55,4231,0,1,419.09999990463257,231,L
2023-04-12T14:55:58Z,tlzx847n,serial-reaction-time,1,P,3,1,56,4231,0,1,308.40000009536743,311,H
2023-04-12T14:55:59Z,tlzx847n,serial-reaction-time,1,R,3,1,57,4231,0,3,779.4000000953674,113,L
2023-04-12T14:55:59Z,tlzx847n,serial-reaction-time,1,P,3,1,58,4231,0,4,389.2000000476837,134,H
2023-04-12T14:56:00Z,tlzx847n,serial-reaction-time,1,R,3,1,59,4231,0,3,371,343,T
2023-04-12T14:56:00Z,tlzx847n,serial-reaction-time,1,P,3,1,60,4231,0,2,361.89999985694885,432,H
2023-04-12T14:56:01Z,tlzx847n,serial-reaction-time,1,R,3,1,61,4231,0,4,484.5,324,L
2023-04-12T14:56:01Z,tlzx847n,serial-reaction-time,1,P,3,1,62,4231,0,3,381.5,243,H
2023-04-12T14:56:02Z,tlzx847n,serial-reaction-time,1,R,3,1,63,4231,0,1,385.2999999523163,431,L
2023-04-12T14:56:02Z,tlzx847n,serial-reaction-time,1,P,3,1,64,4231,0,1,399.7000000476837,311,H
2023-04-12T14:56:03Z,tlzx847n,serial-reaction-time,1,R,3,1,65,4231,0,3,425.09999990463257,113,L
2023-04-12T14:56:03Z,tlzx847n,serial-reaction-time,1,P,3,1,66,4231,0,4,404.40000009536743,134,H
2023-04-12T14:56:04Z,tlzx847n,serial-reaction-time,1,R,3,1,67,4231,0,4,553.1000001430511,344,L
2023-04-12T14:56:05Z,tlzx847n,serial-reaction-time,1,P,3,1,68,4231,0,2,459.09999990463257,442,H
2023-04-12T14:56:05Z,tlzx847n,serial-reaction-time,1,R,3,1,69,4231,0,1,476.5,421,L
2023-04-12T14:56:06Z,tlzx847n,serial-reaction-time,1,P,3,1,70,4231,0,3,399.90000009536743,213,H
2023-04-12T14:56:06Z,tlzx847n,serial-reaction-time,1,R,3,1,71,4231,0,4,358.7000000476837,134,H
2023-04-12T14:56:07Z,tlzx847n,serial-reaction-time,1,P,3,1,72,4231,0,1,473.5,341,H
2023-04-12T14:56:07Z,tlzx847n,serial-reaction-time,1,R,3,1,73,4231,0,4,312.5,414,T
2023-04-12T14:56:08Z,tlzx847n,serial-reaction-time,1,P,3,1,74,4231,0,4,534.0999999046326,144,H
2023-04-12T14:56:09Z,tlzx847n,serial-reaction-time,1,R,3,1,75,4231,0,2,518.7999999523163,442,H
2023-04-12T14:56:09Z,tlzx847n,serial-reaction-time,1,P,3,1,76,4231,0,2,500.40000009536743,422,H
2023-04-12T14:56:10Z,tlzx847n,serial-reaction-time,1,R,3,1,77,4231,0,1,385.5,221,L
2023-04-12T14:56:11Z,tlzx847n,serial-reaction-time,1,P,3,1,78,4231,0,3,568.5999999046326,213,H
2023-04-12T14:56:11Z,tlzx847n,serial-reaction-time,1,R,3,1,79,4231,0,1,483.09999990463257,131,T
2023-04-12T14:56:12Z,tlzx847n,serial-reaction-time,1,P,3,1,80,4231,0,1,330.2999999523163,311,H
2023-04-12T14:56:17Z,tlzx847n,html-keyboard-response,NA,NA,NA,NA,NA,NA,NA,NA,NA,NA,NA
2023-04-12T14:56:19Z,tlzx847n,html-keyboard-response,NA,NA,NA,NA,NA,NA,NA,NA,NA,NA,NA
2023-04-12T14:56:20Z,tlzx847n,serial-reaction-time,1,R,4,1,1,4231,0,3,570.7999999523163,3,X
2023-04-12T14:56:21Z,tlzx847n,serial-reaction-time,1,P,4,1,2,4231,0,4,373.90000009536743,34,X
2023-04-12T14:56:21Z,tlzx847n,serial-reaction-time,1,R,4,1,3,4231,0,3,330,343,T
2023-04-12T14:56:22Z,tlzx847n,serial-reaction-time,1,P,4,1,4,4231,0,2,324.2999999523163,432,H
2023-04-12T14:56:22Z,tlzx847n,serial-reaction-time,1,R,4,1,5,4231,0,2,333,322,L
2023-04-12T14:56:23Z,tlzx847n,serial-reaction-time,1,P,4,1,6,4231,0,3,337.2000000476837,223,H
2023-04-12T14:56:23Z,tlzx847n,serial-reaction-time,1,R,4,1,7,4231,0,1,435.7999999523163,231,L
2023-04-12T14:56:24Z,tlzx847n,serial-reaction-time,1,P,4,1,8,4231,0,1,348.5,311,H
2023-04-12T14:56:25Z,tlzx847n,serial-reaction-time,1,R,4,1,9,4231,0,2,530.2000000476837,112,L
2023-04-12T14:56:25Z,tlzx847n,serial-reaction-time,1,P,4,1,10,4231,0,4,389.2999999523163,124,H
2023-04-12T14:56:26Z,tlzx847n,serial-reaction-time,1,R,4,1,11,4231,0,3,381.7999999523163,243,H
2023-04-12T14:56:26Z,tlzx847n,serial-reaction-time,1,P,4,1,12,4231,0,2,335.5,432,H
2023-04-12T14:56:27Z,tlzx847n,serial-reaction-time,1,R,4,1,13,4231,0,3,380.90000009536743,323,T
2023-04-12T14:56:27Z,tlzx847n,serial-reaction-time,1,P,4,1,14,4231,0,3,408,233,H
2023-04-12T14:56:28Z,tlzx847n,serial-reaction-time,1,R,4,1,15,4231,0,2,413.2999999523163,332,L
2023-04-12T14:56:28Z,tlzx847n,serial-reaction-time,1,P,4,1,16,4231,0,1,426.59999990463257,321,H
2023-04-12T14:56:29Z,tlzx847n,serial-reaction-time,1,R,4,1,17,4231,0,2,594.6000001430511,212,T
2023-04-12T14:56:30Z,tlzx847n,serial-reaction-time,NA,P,4,1,18,4231,0,4,367.2999999523163,124,H
2023-04-12T14:56:30Z,tlzx847n,serial-reaction-time,1,P,4,0,18,4231,0,4,678,124,H
2023-04-12T14:56:30Z,tlzx847n,serial-reaction-time,1,R,4,1,19,4231,0,3,343.7999999523163,243,H
2023-04-12T14:56:31Z,tlzx847n,serial-reaction-time,1,P,4,1,20,4231,0,2,332.2999999523163,432,H
2023-04-12T14:56:31Z,tlzx847n,serial-reaction-time,1,R,4,1,21,4231,0,2,400.5,322,L
2023-04-12T14:56:32Z,tlzx847n,serial-reaction-time,1,P,4,1,22,4231,0,3,348.09999990463257,223,H
2023-04-12T14:56:32Z,tlzx847n,serial-reaction-time,1,R,4,1,23,4231,0,1,446.90000009536743,231,L
2023-04-12T14:56:33Z,tlzx847n,serial-reaction-time,1,P,4,1,24,4231,0,1,407,311,H
2023-04-12T14:56:34Z,tlzx847n,serial-reaction-time,1,R,4,1,25,4231,0,3,465.2000000476837,113,L
2023-04-12T14:56:34Z,tlzx847n,serial-reaction-time,1,P,4,1,26,4231,0,4,391.90000009536743,134,H
2023-04-12T14:56:35Z,tlzx847n,serial-reaction-time,1,R,4,1,27,4231,0,4,515.2000000476837,344,L
2023-04-12T14:56:38Z,tlzx847n,serial-reaction-time,1,P,4,1,28,4231,0,2,3080.899999856949,442,H
2023-04-12T14:56:39Z,tlzx847n,serial-reaction-time,1,R,4,1,29,4231,0,3,592.2999999523163,423,L
2023-04-12T14:56:39Z,tlzx847n,serial-reaction-time,1,P,4,1,30,4231,0,3,495,233,H
2023-04-12T14:56:40Z,tlzx847n,serial-reaction-time,1,R,4,1,31,4231,0,1,408.7999999523163,331,H
2023-04-12T14:56:40Z,tlzx847n,serial-reaction-time,1,P,4,1,32,4231,0,1,324.40000009536743,311,H
2023-04-12T14:56:41Z,tlzx847n,serial-reaction-time,1,R,4,1,33,4231,0,1,329.39999985694885,111,R
2023-04-12T14:56:41Z,tlzx847n,serial-reaction-time,NA,P,4,1,34,4231,0,4,361.59999990463257,114,H
2023-04-12T14:56:42Z,tlzx847n,serial-reaction-time,1,P,4,0,34,4231,0,4,612.7999999523163,114,H
2023-04-12T14:56:42Z,tlzx847n,serial-reaction-time,1,R,4,1,35,4231,0,4,438,144,H
2023-04-12T14:56:43Z,tlzx847n,serial-reaction-time,1,P,4,1,36,4231,0,2,432.89999985694885,442,H
2023-04-12T14:56:43Z,tlzx847n,serial-reaction-time,1,R,4,1,37,4231,0,1,337.7999999523163,421,L
2023-04-12T14:56:44Z,tlzx847n,serial-reaction-time,1,P,4,1,38,4231,0,3,423,213,H
2023-04-12T14:56:44Z,tlzx847n,serial-reaction-time,1,R,4,1,39,4231,0,2,484.2000000476837,132,L
2023-04-12T14:56:45Z,tlzx847n,serial-reaction-time,1,P,4,1,40,4231,0,1,379.39999985694885,321,H
2023-04-12T14:56:45Z,tlzx847n,serial-reaction-time,1,R,4,1,41,4231,0,1,351.5,211,L
2023-04-12T14:56:46Z,tlzx847n,serial-reaction-time,1,P,4,1,42,4231,0,4,345,114,H
2023-04-12T14:56:47Z,tlzx847n,serial-reaction-time,1,R,4,1,43,4231,0,2,461.09999990463257,142,L
2023-04-12T14:56:47Z,tlzx847n,serial-reaction-time,1,P,4,1,44,4231,0,2,337.69999980926514,422,H
2023-04-12T14:56:47Z,tlzx847n,serial-reaction-time,1,R,4,1,45,4231,0,2,317.2999999523163,222,R
2023-04-12T14:56:48Z,tlzx847n,serial-reaction-time,1,P,4,1,46,4231,0,3,421,223,H
2023-04-12T14:56:48Z,tlzx847n,serial-reaction-time,1,R,4,1,47,4231,0,3,350.60000014305115,233,H
2023-04-12T14:56:49Z,tlzx847n,serial-reaction-time,1,P,4,1,48,4231,0,1,306.69999980926514,331,H
2023-04-12T14:56:49Z,tlzx847n,serial-reaction-time,1,R,4,1,49,4231,0,4,387.90000009536743,314,L
2023-04-12T14:56:50Z,tlzx847n,serial-reaction-time,1,P,4,1,50,4231,0,4,386,144,H
2023-04-12T14:56:51Z,tlzx847n,serial-reaction-time,NA,R,4,1,51,4231,0,2,438.2000000476837,442,H
2023-04-12T14:56:51Z,tlzx847n,serial-reaction-time,1,R,4,0,51,4231,0,2,722.0999999046326,442,H
2023-04-12T14:56:51Z,tlzx847n,serial-reaction-time,1,P,4,1,52,4231,0,2,293.7000000476837,422,H
2023-04-12T14:56:52Z,tlzx847n,serial-reaction-time,1,R,4,1,53,4231,0,2,280.59999990463257,222,R
2023-04-12T14:56:52Z,tlzx847n,serial-reaction-time,1,P,4,1,54,4231,0,3,372.40000009536743,223,H
2023-04-12T14:56:53Z,tlzx847n,serial-reaction-time,1,R,4,1,55,4231,0,3,248.6999998092651,233,H
2023-04-12T14:56:53Z,tlzx847n,serial-reaction-time,1,P,4,1,56,4231,0,1,334.7000000476837,331,H
2023-04-12T14:56:54Z,tlzx847n,serial-reaction-time,1,R,4,1,57,4231,0,3,383,313,T
2023-04-12T14:56:54Z,tlzx847n,serial-reaction-time,1,P,4,1,58,4231,0,4,355,134,H
2023-04-12T14:56:55Z,tlzx847n,serial-reaction-time,1,R,4,1,59,4231,0,4,299,344,L
2023-04-12T14:56:55Z,tlzx847n,serial-reaction-time,1,P,4,1,60,4231,0,2,429.09999990463257,442,H
2023-04-12T14:56:56Z,tlzx847n,serial-reaction-time,1,R,4,1,61,4231,0,1,386.7999999523163,421,L
2023-04-12T14:56:56Z,tlzx847n,serial-reaction-time,1,P,4,1,62,4231,0,3,445.40000009536743,213,H
2023-04-12T14:56:59Z,tlzx847n,serial-reaction-time,1,R,4,1,63,4231,0,1,2287.7000000476837,131,T
2023-04-12T14:57:00Z,tlzx847n,serial-reaction-time,1,P,4,1,64,4231,0,1,874.9000000953674,311,H
2023-04-12T14:57:00Z,tlzx847n,serial-reaction-time,1,R,4,1,65,4231,0,3,495.09999990463257,113,L
2023-04-12T14:57:01Z,tlzx847n,serial-reaction-time,1,P,4,1,66,4231,0,4,345.90000009536743,134,H
2023-04-12T14:57:01Z,tlzx847n,serial-reaction-time,1,R,4,1,67,4231,0,3,339.2999999523163,343,T
2023-04-12T14:57:02Z,tlzx847n,serial-reaction-time,1,P,4,1,68,4231,0,2,686.4000000953674,432,H
2023-04-12T14:57:03Z,tlzx847n,serial-reaction-time,1,R,4,1,69,4231,0,3,440.2999999523163,323,T
2023-04-12T14:57:03Z,tlzx847n,serial-reaction-time,1,P,4,1,70,4231,0,3,381.5,233,H
2023-04-12T14:57:04Z,tlzx847n,serial-reaction-time,1,R,4,1,71,4231,0,2,390.39999985694885,332,L
2023-04-12T14:57:04Z,tlzx847n,serial-reaction-time,1,P,4,1,72,4231,0,1,418.7999999523163,321,H
2023-04-12T14:57:05Z,tlzx847n,serial-reaction-time,1,R,4,1,73,4231,0,3,366.40000009536743,213,H
2023-04-12T14:57:05Z,tlzx847n,serial-reaction-time,1,P,4,1,74,4231,0,4,366.2000000476837,134,H
2023-04-12T14:57:06Z,tlzx847n,serial-reaction-time,1,R,4,1,75,4231,0,3,339.2000000476837,343,T
2023-04-12T14:57:06Z,tlzx847n,serial-reaction-time,1,P,4,1,76,4231,0,2,412.90000009536743,432,H
2023-04-12T14:57:07Z,tlzx847n,serial-reaction-time,1,R,4,1,77,4231,0,4,399.7000000476837,324,L
2023-04-12T14:57:07Z,tlzx847n,serial-reaction-time,1,P,4,1,78,4231,0,3,355,243,H
2023-04-12T14:57:08Z,tlzx847n,serial-reaction-time,1,R,4,1,79,4231,0,2,513.2000000476837,432,H
2023-04-12T14:57:09Z,tlzx847n,serial-reaction-time,1,P,4,1,80,4231,0,1,395.90000009536743,321,H
2023-04-12T14:57:14Z,tlzx847n,html-keyboard-response,NA,NA,NA,NA,NA,NA,NA,NA,NA,NA,NA
2023-04-12T14:57:18Z,tlzx847n,html-keyboard-response,NA,NA,NA,NA,NA,NA,NA,NA,NA,NA,NA
2023-04-12T14:57:20Z,tlzx847n,serial-reaction-time,1,R,5,1,1,4231,0,1,1129.2999999523165,1,X
2023-04-12T14:57:21Z,tlzx847n,serial-reaction-time,1,P,5,1,2,4231,0,4,336.2999999523163,14,X
2023-04-12T14:57:21Z,tlzx847n,serial-reaction-time,1,R,5,1,3,4231,0,4,399.7000000476837,144,H
2023-04-12T14:57:23Z,tlzx847n,serial-reaction-time,1,P,5,1,4,4231,0,2,1120.1000001430511,442,H
2023-04-12T14:57:23Z,tlzx847n,serial-reaction-time,1,R,5,1,5,4231,0,2,306,422,H
2023-04-12T14:57:24Z,tlzx847n,serial-reaction-time,1,P,5,1,6,4231,0,3,332,223,H
2023-04-12T14:57:24Z,tlzx847n,serial-reaction-time,1,R,5,1,7,4231,0,3,320.2999999523163,233,H
2023-04-12T14:57:25Z,tlzx847n,serial-reaction-time,1,P,5,1,8,4231,0,1,302.60000014305115,331,H
2023-04-12T14:57:25Z,tlzx847n,serial-reaction-time,NA,R,5,1,9,4231,0,2,352.2999999523163,312,L
2023-04-12T14:57:25Z,tlzx847n,serial-reaction-time,1,R,5,0,9,4231,0,2,635.2999999523163,312,L
2023-04-12T14:57:26Z,tlzx847n,serial-reaction-time,1,P,5,1,10,4231,0,4,343.40000009536743,124,H
2023-04-12T14:57:26Z,tlzx847n,serial-reaction-time,1,R,5,1,11,4231,0,1,473.89999985694885,241,L
2023-04-12T14:57:27Z,tlzx847n,serial-reaction-time,1,P,5,1,12,4231,0,2,418.80000019073486,412,H
2023-04-12T14:57:27Z,tlzx847n,serial-reaction-time,1,R,5,1,13,4231,0,2,326.7999999523163,122,L
2023-04-12T14:57:28Z,tlzx847n,serial-reaction-time,1,P,5,1,14,4231,0,3,303.40000009536743,223,H
2023-04-12T14:57:28Z,tlzx847n,serial-reaction-time,1,R,5,1,15,4231,0,2,380,232,T
2023-04-12T14:57:29Z,tlzx847n,serial-reaction-time,1,P,5,1,16,4231,0,1,383.7000000476837,321,H
2023-04-12T14:57:29Z,tlzx847n,serial-reaction-time,1,R,5,1,17,4231,0,3,340.80000019073486,213,H
2023-04-12T14:57:30Z,tlzx847n,serial-reaction-time,1,P,5,1,18,4231,0,4,379.40000009536743,134,H
2023-04-12T14:57:30Z,tlzx847n,serial-reaction-time,1,R,5,1,19,4231,0,1,358.40000009536743,341,H
2023-04-12T14:57:31Z,tlzx847n,serial-reaction-time,1,P,5,1,20,4231,0,2,345.19999980926514,412,H
2023-04-12T14:57:31Z,tlzx847n,serial-reaction-time,NA,R,5,1,21,4231,0,4,399,124,H
2023-04-12T14:57:32Z,tlzx847n,serial-reaction-time,1,R,5,0,21,4231,0,4,687.5999999046326,124,H
2023-04-12T14:57:32Z,tlzx847n,serial-reaction-time,1,P,5,1,22,4231,0,3,369.2000000476837,243,H
2023-04-12T14:57:33Z,tlzx847n,serial-reaction-time,1,R,5,1,23,4231,0,2,370.59999990463257,432,H
2023-04-12T14:57:33Z,tlzx847n,serial-reaction-time,1,P,5,1,24,4231,0,1,335,321,H
2023-04-12T14:57:34Z,tlzx847n,serial-reaction-time,1,R,5,1,25,4231,0,3,380.2999999523163,213,H
2023-04-12T14:57:35Z,tlzx847n,serial-reaction-time,1,P,5,1,26,4231,0,4,579.1000001430511,134,H
2023-04-12T14:57:35Z,tlzx847n,serial-reaction-time,1,R,5,1,27,4231,0,2,390.7999999523163,342,L
2023-04-12T14:57:36Z,tlzx847n,serial-reaction-time,1,P,5,1,28,4231,0,2,411.40000009536743,422,H
2023-04-12T14:57:36Z,tlzx847n,serial-reaction-time,1,R,5,1,29,4231,0,3,383.59999990463257,223,H
2023-04-12T14:57:37Z,tlzx847n,serial-reaction-time,1,P,5,1,30,4231,0,3,350.69999980926514,233,H
2023-04-12T14:57:37Z,tlzx847n,serial-reaction-time,1,R,5,1,31,4231,0,4,366.09999990463257,334,L
2023-04-12T14:57:38Z,tlzx847n,serial-reaction-time,1,P,5,1,32,4231,0,1,401,341,H
2023-04-12T14:57:38Z,tlzx847n,serial-reaction-time,1,R,5,1,33,4231,0,2,393.09999990463257,412,H
2023-04-12T14:57:39Z,tlzx847n,serial-reaction-time,1,P,5,1,34,4231,0,4,399.7999999523163,124,H
2023-04-12T14:57:39Z,tlzx847n,serial-reaction-time,1,R,5,1,35,4231,0,2,365.10000014305115,242,T
2023-04-12T14:57:40Z,tlzx847n,serial-reaction-time,1,P,5,1,36,4231,0,2,338.2999999523163,422,H
2023-04-12T14:57:40Z,tlzx847n,serial-reaction-time,1,R,5,1,37,4231,0,1,401.39999985694885,221,L
2023-04-12T14:57:41Z,tlzx847n,serial-reaction-time,1,P,5,1,38,4231,0,3,891.2000000476837,213,H
2023-04-12T14:57:42Z,tlzx847n,serial-reaction-time,1,R,5,1,39,4231,0,4,343.2000000476837,134,H
2023-04-12T14:57:43Z,tlzx847n,serial-reaction-time,1,P,5,1,40,4231,0,1,546.3999998569489,341,H
2023-04-12T14:57:43Z,tlzx847n,serial-reaction-time,1,R,5,1,41,4231,0,2,413.7000000476837,412,H
2023-04-12T14:57:44Z,tlzx847n,serial-reaction-time,1,P,5,1,42,4231,0,4,355.69999980926514,124,H
2023-04-12T14:57:44Z,tlzx847n,serial-reaction-time,1,R,5,1,43,4231,0,3,685.2999999523163,243,H
2023-04-12T14:57:45Z,tlzx847n,serial-reaction-time,1,P,5,1,44,4231,0,2,337.39999985694885,432,H
2023-04-12T14:57:45Z,tlzx847n,serial-reaction-time,1,R,5,1,45,4231,0,2,325.40000009536743,322,L
2023-04-12T14:57:46Z,tlzx847n,serial-reaction-time,1,P,5,1,46,4231,0,3,389.69999980926514,223,H
2023-04-12T14:57:47Z,tlzx847n,serial-reaction-time,1,R,5,1,47,4231,0,3,1160.2999999523165,233,H
2023-04-12T14:57:48Z,tlzx847n,serial-reaction-time,1,P,5,1,48,4231,0,1,330.89999985694885,331,H
2023-04-12T14:57:48Z,tlzx847n,serial-reaction-time,1,R,5,1,49,4231,0,2,383.7000000476837,312,L
2023-04-12T14:57:49Z,tlzx847n,serial-reaction-time,NA,P,5,1,50,4231,0,4,398.2999999523163,124,H
2023-04-12T14:57:49Z,tlzx847n,serial-reaction-time,1,P,5,0,50,4231,0,4,641.5999999046326,124,H
2023-04-12T14:57:50Z,tlzx847n,serial-reaction-time,1,R,5,1,51,4231,0,4,497.10000014305115,244,L
2023-04-12T14:57:50Z,tlzx847n,serial-reaction-time,NA,P,5,1,52,4231,0,2,384.2999999523163,442,H
2023-04-12T14:57:50Z,tlzx847n,serial-reaction-time,1,P,5,0,52,4231,0,2,704.6000001430511,442,H
2023-04-12T14:57:51Z,tlzx847n,serial-reaction-time,1,R,5,1,53,4231,0,4,415.89999985694885,424,T
2023-04-12T14:57:52Z,tlzx847n,serial-reaction-time,1,P,5,1,54,4231,0,3,637,243,H
2023-04-12T14:57:52Z,tlzx847n,serial-reaction-time,1,R,5,1,55,4231,0,2,371.10000014305115,432,H
2023-04-12T14:57:53Z,tlzx847n,serial-reaction-time,1,P,5,1,56,4231,0,1,344.2000000476837,321,H
2023-04-12T14:57:53Z,tlzx847n,serial-reaction-time,1,R,5,1,57,4231,0,3,446.40000009536743,213,H
2023-04-12T14:57:54Z,tlzx847n,serial-reaction-time,1,P,5,1,58,4231,0,4,403.40000009536743,134,H
2023-04-12T14:57:55Z,tlzx847n,serial-reaction-time,1,R,5,1,59,4231,0,1,559.5,341,H
2023-04-12T14:57:55Z,tlzx847n,serial-reaction-time,1,P,5,1,60,4231,0,2,419,412,H
2023-04-12T14:57:56Z,tlzx847n,serial-reaction-time,1,R,5,1,61,4231,0,1,405.5,121,T
2023-04-12T14:57:56Z,tlzx847n,serial-reaction-time,1,P,5,1,62,4231,0,3,424.2999999523163,213,H
2023-04-12T14:57:57Z,tlzx847n,serial-reaction-time,1,R,5,1,63,4231,0,3,353.59999990463257,133,L
2023-04-12T14:57:57Z,tlzx847n,serial-reaction-time,1,P,5,1,64,4231,0,1,381.39999985694885,331,H
2023-04-12T14:57:58Z,tlzx847n,serial-reaction-time,1,R,5,1,65,4231,0,2,387.09999990463257,312,L
2023-04-12T14:57:58Z,tlzx847n,serial-reaction-time,1,P,5,1,66,4231,0,4,408.2999999523163,124,H
2023-04-12T14:57:59Z,tlzx847n,serial-reaction-time,1,R,5,1,67,4231,0,1,360.7000000476837,241,L
2023-04-12T14:58:00Z,tlzx847n,serial-reaction-time,1,P,5,1,68,4231,0,2,463.09999990463257,412,H
2023-04-12T14:58:00Z,tlzx847n,serial-reaction-time,1,R,5,1,69,4231,0,4,503.19999980926514,124,H
2023-04-12T14:58:01Z,tlzx847n,serial-reaction-time,1,P,5,1,70,4231,0,3,580.5999999046326,243,H
2023-04-12T14:58:01Z,tlzx847n,serial-reaction-time,1,R,5,1,71,4231,0,2,327.40000009536743,432,H
2023-04-12T14:58:02Z,tlzx847n,serial-reaction-time,1,P,5,1,72,4231,0,1,452.40000009536743,321,H
2023-04-12T14:58:03Z,tlzx847n,serial-reaction-time,1,R,5,1,73,4231,0,2,380.40000009536743,212,T
2023-04-12T14:58:03Z,tlzx847n,serial-reaction-time,1,P,5,1,74,4231,0,4,539.5,124,H
2023-04-12T14:58:04Z,tlzx847n,serial-reaction-time,1,R,5,1,75,4231,0,2,496.59999990463257,242,T
2023-04-12T14:58:04Z,tlzx847n,serial-reaction-time,1,P,5,1,76,4231,0,2,343,422,H
2023-04-12T14:58:05Z,tlzx847n,serial-reaction-time,1,R,5,1,77,4231,0,2,329.30000019073486,222,R
2023-04-12T14:58:05Z,tlzx847n,serial-reaction-time,1,P,5,1,78,4231,0,3,492.09999990463257,223,H
2023-04-12T14:58:06Z,tlzx847n,serial-reaction-time,NA,R,5,1,79,4231,0,4,239.10000014305115,234,L
2023-04-12T14:58:06Z,tlzx847n,serial-reaction-time,1,R,5,0,79,4231,0,4,431.60000014305115,234,L
2023-04-12T14:58:06Z,tlzx847n,serial-reaction-time,1,P,5,1,80,4231,0,1,302.09999990463257,341,H
2023-04-12T14:58:11Z,tlzx847n,html-keyboard-response,NA,NA,NA,NA,NA,NA,NA,NA,NA,NA,NA
2023-04-12T14:58:14Z,tlzx847n,html-keyboard-response,NA,NA,NA,NA,NA,NA,NA,NA,NA,NA,NA
2023-04-12T14:58:16Z,tlzx847n,fullscreen,NA,NA,NA,NA,NA,NA,NA,NA,NA,NA,NA
2023-04-12T23:37:49Z,ignzshk6,fullscreen,NA,NA,NA,NA,NA,NA,NA,NA,NA,NA,NA
2023-04-12T23:37:53Z,ignzshk6,html-keyboard-response,NA,NA,NA,NA,NA,NA,NA,NA,NA,NA,NA
2023-04-12T23:37:55Z,ignzshk6,serial-reaction-time,1,R,1,1,1,1234,0,1,322,1,X
2023-04-12T23:37:55Z,ignzshk6,serial-reaction-time,1,P,1,1,2,1234,0,1,328.20000000298023,11,X
2023-04-12T23:37:56Z,ignzshk6,serial-reaction-time,NA,R,1,1,3,1234,0,4,348.4000000022352,114,L
2023-04-12T23:37:56Z,ignzshk6,serial-reaction-time,1,R,1,0,3,1234,0,4,626.5000000037253,114,L
2023-04-12T23:37:56Z,ignzshk6,serial-reaction-time,1,P,1,1,4,1234,0,2,285.5,142,H
2023-04-12T23:37:57Z,ignzshk6,serial-reaction-time,1,R,1,1,5,1234,0,1,326.1000000014901,421,H
2023-04-12T23:37:57Z,ignzshk6,serial-reaction-time,1,P,1,1,6,1234,0,3,316.69999999925494,213,H
2023-04-12T23:37:58Z,ignzshk6,serial-reaction-time,1,R,1,1,7,1234,0,4,280.5,134,L
2023-04-12T23:37:58Z,ignzshk6,serial-reaction-time,1,P,1,1,8,1234,0,4,260.80000000074506,344,H
2023-04-12T23:37:59Z,ignzshk6,serial-reaction-time,1,R,1,1,9,1234,0,3,342.0999999977648,443,L
2023-04-12T23:37:59Z,ignzshk6,serial-reaction-time,1,P,1,1,10,1234,0,1,293.5,431,H
2023-04-12T23:38:00Z,ignzshk6,serial-reaction-time,1,R,1,1,11,1234,0,3,335.80000000074506,313,T
2023-04-12T23:38:00Z,ignzshk6,serial-reaction-time,1,P,1,1,12,1234,0,2,299.3999999985099,132,H
2023-04-12T23:38:00Z,ignzshk6,serial-reaction-time,1,R,1,1,13,1234,0,4,297.69999999925494,324,H
2023-04-12T23:38:01Z,ignzshk6,serial-reaction-time,1,P,1,1,14,1234,0,3,349.0999999977648,243,H
2023-04-12T23:38:01Z,ignzshk6,serial-reaction-time,1,R,1,1,15,1234,0,1,297.19999999925494,431,H
2023-04-12T23:38:02Z,ignzshk6,serial-reaction-time,1,P,1,1,16,1234,0,4,323.1000000014901,314,H
2023-04-12T23:38:02Z,ignzshk6,serial-reaction-time,1,R,1,1,17,1234,0,1,388,141,T
2023-04-12T23:38:03Z,ignzshk6,serial-reaction-time,1,P,1,1,18,1234,0,1,229.19999999925497,411,H
2023-04-12T23:38:03Z,ignzshk6,serial-reaction-time,1,R,1,1,19,1234,0,4,329.5,114,L
2023-04-12T23:38:03Z,ignzshk6,serial-reaction-time,1,P,1,1,20,1234,0,2,275.5,142,H
2023-04-12T23:38:04Z,ignzshk6,serial-reaction-time,1,R,1,1,21,1234,0,4,321.6000000014901,424,T
2023-04-12T23:38:04Z,ignzshk6,serial-reaction-time,1,P,1,1,22,1234,0,3,379.1000000014901,243,H
2023-04-12T23:38:05Z,ignzshk6,serial-reaction-time,1,R,1,1,23,1234,0,1,310.4000000022352,431,H
2023-04-12T23:38:05Z,ignzshk6,serial-reaction-time,1,P,1,1,24,1234,0,4,361.5,314,H
2023-04-12T23:38:06Z,ignzshk6,serial-reaction-time,1,R,1,1,25,1234,0,2,261.30000000074506,142,H
2023-04-12T23:38:06Z,ignzshk6,serial-reaction-time,1,P,1,1,26,1234,0,1,341.30000000074506,421,H
2023-04-12T23:38:07Z,ignzshk6,serial-reaction-time,1,R,1,1,27,1234,0,1,251.40000000223517,211,L
2023-04-12T23:38:07Z,ignzshk6,serial-reaction-time,1,P,1,1,28,1234,0,2,336,112,H
2023-04-12T23:38:07Z,ignzshk6,serial-reaction-time,1,R,1,1,29,1234,0,2,216.09999999776483,122,H
2023-04-12T23:38:08Z,ignzshk6,serial-reaction-time,1,P,1,1,30,1234,0,3,456.69999999925494,223,H
2023-04-12T23:38:09Z,ignzshk6,serial-reaction-time,1,R,1,1,31,1234,0,4,346.29999999701977,234,L
2023-04-12T23:38:09Z,ignzshk6,serial-reaction-time,1,P,1,1,32,1234,0,4,275.80000000074506,344,H
2023-04-12T23:38:09Z,ignzshk6,serial-reaction-time,1,R,1,1,33,1234,0,3,370.5,443,L
2023-04-12T23:38:10Z,ignzshk6,serial-reaction-time,1,P,1,1,34,1234,0,1,306.8999999985099,431,H
2023-04-12T23:38:10Z,ignzshk6,serial-reaction-time,NA,R,1,1,35,1234,0,2,300.80000000074506,312,L
2023-04-12T23:38:10Z,ignzshk6,serial-reaction-time,1,R,1,0,35,1234,0,2,403.80000000074506,312,L
2023-04-12T23:38:11Z,ignzshk6,serial-reaction-time,1,P,1,1,36,1234,0,2,266.8999999985099,122,H
2023-04-12T23:38:11Z,ignzshk6,serial-reaction-time,1,R,1,1,37,1234,0,1,331.80000000074506,221,L
2023-04-12T23:38:12Z,ignzshk6,serial-reaction-time,1,P,1,1,38,1234,0,3,336.5,213,H
2023-04-12T23:38:12Z,ignzshk6,serial-reaction-time,1,R,1,1,39,1234,0,2,266,132,H
2023-04-12T23:38:13Z,ignzshk6,serial-reaction-time,1,P,1,1,40,1234,0,4,327.69999999925494,324,H
2023-04-12T23:38:13Z,ignzshk6,serial-reaction-time,1,R,1,1,41,1234,0,2,349.69999999925494,242,T
2023-04-12T23:38:13Z,ignzshk6,serial-reaction-time,1,P,1,1,42,1234,0,1,236.90000000223517,421,H
2023-04-12T23:38:14Z,ignzshk6,serial-reaction-time,1,R,1,1,43,1234,0,4,328.3999999985099,214,L
2023-04-12T23:38:14Z,ignzshk6,serial-reaction-time,1,P,1,1,44,1234,0,2,267.19999999925494,142,H
2023-04-12T23:38:15Z,ignzshk6,serial-reaction-time,1,R,1,1,45,1234,0,4,392.8999999985099,424,T
2023-04-12T23:38:15Z,ignzshk6,serial-reaction-time,1,P,1,1,46,1234,0,3,512,243,H
2023-04-12T23:38:16Z,ignzshk6,serial-reaction-time,1,R,1,1,47,1234,0,1,395.69999999925494,431,H
2023-04-12T23:38:16Z,ignzshk6,serial-reaction-time,1,P,1,1,48,1234,0,4,353.30000000074506,314,H
2023-04-12T23:38:17Z,ignzshk6,serial-reaction-time,1,R,1,1,49,1234,0,2,251,142,H
2023-04-12T23:38:17Z,ignzshk6,serial-reaction-time,1,P,1,1,50,1234,0,1,277.80000000074506,421,H
2023-04-12T23:38:18Z,ignzshk6,serial-reaction-time,1,R,1,1,51,1234,0,4,318.30000000074506,214,L
2023-04-12T23:38:18Z,ignzshk6,serial-reaction-time,1,P,1,1,52,1234,0,2,240.69999999925497,142,H
2023-04-12T23:38:19Z,ignzshk6,serial-reaction-time,1,R,1,1,53,1234,0,4,321.1000000014901,424,T
2023-04-12T23:38:19Z,ignzshk6,serial-reaction-time,1,P,1,1,54,1234,0,3,488.4000000022352,243,H
2023-04-12T23:38:20Z,ignzshk6,serial-reaction-time,1,R,1,1,55,1234,0,1,294.29999999701977,431,H
2023-04-12T23:38:20Z,ignzshk6,serial-reaction-time,1,P,1,1,56,1234,0,4,259.6000000014901,314,H
2023-04-12T23:38:20Z,ignzshk6,serial-reaction-time,1,R,1,1,57,1234,0,4,303.8999999985099,144,L
2023-04-12T23:38:21Z,ignzshk6,serial-reaction-time,NA,P,1,1,58,1234,0,1,290.5,441,H
2023-04-12T23:38:21Z,ignzshk6,serial-reaction-time,1,P,1,0,58,1234,0,1,341.69999999925494,441,H
2023-04-12T23:38:21Z,ignzshk6,serial-reaction-time,1,R,1,1,59,1234,0,1,302,411,H
2023-04-12T23:38:22Z,ignzshk6,serial-reaction-time,1,P,1,1,60,1234,0,2,338.19999999925494,112,H
2023-04-12T23:38:22Z,ignzshk6,serial-reaction-time,1,R,1,1,61,1234,0,4,316.69999999925494,124,L
2023-04-12T23:38:23Z,ignzshk6,serial-reaction-time,NA,P,1,1,62,1234,0,3,232.60000000149012,243,H
2023-04-12T23:38:23Z,ignzshk6,serial-reaction-time,1,P,1,0,62,1234,0,3,495.4000000022352,243,H
2023-04-12T23:38:23Z,ignzshk6,serial-reaction-time,1,R,1,1,63,1234,0,2,366.5,432,L
2023-04-12T23:38:24Z,ignzshk6,serial-reaction-time,1,P,1,1,64,1234,0,4,340.1000000014901,324,H
2023-04-12T23:38:24Z,ignzshk6,serial-reaction-time,1,R,1,1,65,1234,0,4,260.8999999985099,244,L
2023-04-12T23:38:25Z,ignzshk6,serial-reaction-time,1,P,1,1,66,1234,0,1,346.9000000022352,441,H
2023-04-12T23:38:25Z,ignzshk6,serial-reaction-time,1,R,1,1,67,1234,0,1,251,411,H
2023-04-12T23:38:26Z,ignzshk6,serial-reaction-time,1,P,1,1,68,1234,0,2,364.80000000074506,112,H
2023-04-12T23:38:26Z,ignzshk6,serial-reaction-time,1,R,1,1,69,1234,0,2,231.19999999925497,122,H
2023-04-12T23:38:26Z,ignzshk6,serial-reaction-time,1,P,1,1,70,1234,0,3,365.9000000022352,223,H
2023-04-12T23:38:27Z,ignzshk6,serial-reaction-time,NA,R,1,1,71,1234,0,2,320.19999999925494,232,T
2023-04-12T23:38:27Z,ignzshk6,serial-reaction-time,1,R,1,0,71,1234,0,2,625.8000000007451,232,T
2023-04-12T23:38:28Z,ignzshk6,serial-reaction-time,1,P,1,1,72,1234,0,4,346,324,H
2023-04-12T23:38:28Z,ignzshk6,serial-reaction-time,NA,R,1,1,73,1234,0,3,274.69999999925494,243,H
2023-04-12T23:38:28Z,ignzshk6,serial-reaction-time,1,R,1,0,73,1234,0,3,514.8000000007451,243,H
2023-04-12T23:38:29Z,ignzshk6,serial-reaction-time,1,P,1,1,74,1234,0,1,346.19999999925494,431,H
2023-04-12T23:38:29Z,ignzshk6,serial-reaction-time,1,R,1,1,75,1234,0,4,378.5,314,H
2023-04-12T23:38:30Z,ignzshk6,serial-reaction-time,1,P,1,1,76,1234,0,2,274.0999999977648,142,H
2023-04-12T23:38:30Z,ignzshk6,serial-reaction-time,NA,R,1,1,77,1234,0,1,245.19999999925497,421,H
2023-04-12T23:38:30Z,ignzshk6,serial-reaction-time,1,R,1,0,77,1234,0,1,369.19999999925494,421,H
2023-04-12T23:38:31Z,ignzshk6,serial-reaction-time,1,P,1,1,78,1234,0,3,375.0999999977648,213,H
2023-04-12T23:38:31Z,ignzshk6,serial-reaction-time,1,R,1,1,79,1234,0,3,442.20000000298023,133,L
2023-04-12T23:38:32Z,ignzshk6,serial-reaction-time,1,P,1,1,80,1234,0,4,307.30000000074506,334,H
2023-04-12T23:38:37Z,ignzshk6,html-keyboard-response,NA,NA,NA,NA,NA,NA,NA,NA,NA,NA,NA
2023-04-12T23:38:45Z,ignzshk6,html-keyboard-response,NA,NA,NA,NA,NA,NA,NA,NA,NA,NA,NA
2023-04-12T23:38:46Z,ignzshk6,serial-reaction-time,1,R,2,1,1,1234,0,2,338.9000000022352,2,X
2023-04-12T23:38:46Z,ignzshk6,serial-reaction-time,1,P,2,1,2,1234,0,1,289.20000000298023,21,X
2023-04-12T23:38:47Z,ignzshk6,serial-reaction-time,1,R,2,1,3,1234,0,2,296.69999999925494,212,T
2023-04-12T23:38:47Z,ignzshk6,serial-reaction-time,1,P,2,1,4,1234,0,2,288.5,122,H
2023-04-12T23:38:48Z,ignzshk6,serial-reaction-time,1,R,2,1,5,1234,0,1,274,221,L
2023-04-12T23:38:48Z,ignzshk6,serial-reaction-time,1,P,2,1,6,1234,0,3,329.80000000074506,213,H
2023-04-12T23:38:49Z,ignzshk6,serial-reaction-time,1,R,2,1,7,1234,0,4,315.0999999977648,134,L
2023-04-12T23:38:49Z,ignzshk6,serial-reaction-time,1,P,2,1,8,1234,0,4,249.10000000149012,344,H
2023-04-12T23:38:49Z,ignzshk6,serial-reaction-time,1,R,2,1,9,1234,0,1,309.5,441,H
2023-04-12T23:38:50Z,ignzshk6,serial-reaction-time,1,P,2,1,10,1234,0,1,223.30000000074503,411,H
2023-04-12T23:38:50Z,ignzshk6,serial-reaction-time,1,R,2,1,11,1234,0,3,290.20000000298023,113,L
2023-04-12T23:38:51Z,ignzshk6,serial-reaction-time,1,P,2,1,12,1234,0,2,229,132,H
2023-04-12T23:38:51Z,ignzshk6,serial-reaction-time,1,R,2,1,13,1234,0,4,280.69999999925494,324,H
2023-04-12T23:38:51Z,ignzshk6,serial-reaction-time,1,P,2,1,14,1234,0,3,371.19999999925494,243,H
2023-04-12T23:38:52Z,ignzshk6,serial-reaction-time,NA,R,2,1,15,1234,0,1,229,431,H
2023-04-12T23:38:52Z,ignzshk6,serial-reaction-time,1,R,2,0,15,1234,0,1,328.79999999701977,431,H
2023-04-12T23:38:52Z,ignzshk6,serial-reaction-time,1,P,2,1,16,1234,0,4,321.1000000014901,314,H
2023-04-12T23:38:53Z,ignzshk6,serial-reaction-time,1,R,2,1,17,1234,0,2,266.1000000014901,142,H
2023-04-12T23:38:53Z,ignzshk6,serial-reaction-time,1,P,2,1,18,1234,0,1,331.5,421,H
2023-04-12T23:38:54Z,ignzshk6,serial-reaction-time,1,R,2,1,19,1234,0,1,300,211,L
2023-04-12T23:38:54Z,ignzshk6,serial-reaction-time,1,P,2,1,20,1234,0,2,305.4000000022352,112,H
2023-04-12T23:38:55Z,ignzshk6,serial-reaction-time,1,R,2,1,21,1234,0,3,332.8999999985099,123,L
2023-04-12T23:38:55Z,ignzshk6,serial-reaction-time,1,P,2,1,22,1234,0,3,336.20000000298023,233,H
2023-04-12T23:38:55Z,ignzshk6,serial-reaction-time,1,R,2,1,23,1234,0,3,387.70000000298023,333,R
2023-04-12T23:38:56Z,ignzshk6,serial-reaction-time,1,P,2,1,24,1234,0,4,276.1000000014901,334,H
2023-04-12T23:38:56Z,ignzshk6,serial-reaction-time,NA,R,2,1,25,1234,0,1,201.5,341,L
2023-04-12T23:38:56Z,ignzshk6,serial-reaction-time,1,R,2,0,25,1234,0,1,430.30000000074506,341,L
2023-04-12T23:38:57Z,ignzshk6,serial-reaction-time,1,P,2,1,26,1234,0,1,312.5,411,H
2023-04-12T23:38:57Z,ignzshk6,serial-reaction-time,1,R,2,1,27,1234,0,3,376.19999999925494,113,L
2023-04-12T23:38:58Z,ignzshk6,serial-reaction-time,1,P,2,1,28,1234,0,2,279.20000000298023,132,H
2023-04-12T23:38:58Z,ignzshk6,serial-reaction-time,1,R,2,1,29,1234,0,3,348.69999999925494,323,T
2023-04-12T23:38:59Z,ignzshk6,serial-reaction-time,1,P,2,1,30,1234,0,3,226.69999999925497,233,H
2023-04-12T23:38:59Z,ignzshk6,serial-reaction-time,1,R,2,1,31,1234,0,3,291.80000000074506,333,R
2023-04-12T23:39:00Z,ignzshk6,serial-reaction-time,1,P,2,1,32,1234,0,4,287.19999999925494,334,H
2023-04-12T23:39:00Z,ignzshk6,serial-reaction-time,1,R,2,1,33,1234,0,4,218.30000000074503,344,H
2023-04-12T23:39:00Z,ignzshk6,serial-reaction-time,NA,P,2,1,34,1234,0,1,204.70000000298023,441,H
2023-04-12T23:39:00Z,ignzshk6,serial-reaction-time,1,P,2,0,34,1234,0,1,463.1000000052154,441,H
2023-04-12T23:39:01Z,ignzshk6,serial-reaction-time,1,R,2,1,35,1234,0,2,372,412,L
2023-04-12T23:39:01Z,ignzshk6,serial-reaction-time,1,P,2,1,36,1234,0,2,222,122,H
2023-04-12T23:39:02Z,ignzshk6,serial-reaction-time,1,R,2,1,37,1234,0,4,381,224,L
2023-04-12T23:39:02Z,ignzshk6,serial-reaction-time,NA,P,2,1,38,1234,0,3,238.40000000223517,243,H
2023-04-12T23:39:02Z,ignzshk6,serial-reaction-time,1,P,2,0,38,1234,0,3,507.4000000022352,243,H
2023-04-12T23:39:03Z,ignzshk6,serial-reaction-time,1,R,2,1,39,1234,0,1,281.19999999925494,431,H
2023-04-12T23:39:03Z,ignzshk6,serial-reaction-time,1,P,2,1,40,1234,0,4,391.8999999985099,314,H
2023-04-12T23:39:04Z,ignzshk6,serial-reaction-time,1,R,2,1,41,1234,0,2,304.80000000074506,142,H
2023-04-12T23:39:04Z,ignzshk6,serial-reaction-time,NA,P,2,1,42,1234,0,1,259.3999999985099,421,H
2023-04-12T23:39:04Z,ignzshk6,serial-reaction-time,1,P,2,0,42,1234,0,1,487.19999999552965,421,H
2023-04-12T23:39:05Z,ignzshk6,serial-reaction-time,1,R,2,1,43,1234,0,3,378.5,213,H
2023-04-12T23:39:05Z,ignzshk6,serial-reaction-time,1,P,2,1,44,1234,0,2,288.30000000074506,132,H
2023-04-12T23:39:06Z,ignzshk6,serial-reaction-time,1,R,2,1,45,1234,0,1,304.9000000022352,321,L
2023-04-12T23:39:06Z,ignzshk6,serial-reaction-time,1,P,2,1,46,1234,0,3,366.5,213,H
2023-04-12T23:39:07Z,ignzshk6,serial-reaction-time,1,R,2,1,47,1234,0,4,409.5999999977648,134,L
2023-04-12T23:39:07Z,ignzshk6,serial-reaction-time,1,P,2,1,48,1234,0,4,274.30000000074506,344,H
2023-04-12T23:39:08Z,ignzshk6,serial-reaction-time,1,R,2,1,49,1234,0,4,333,444,R
2023-04-12T23:39:08Z,ignzshk6,serial-reaction-time,1,P,2,1,50,1234,0,1,312.80000000074506,441,H
2023-04-12T23:39:09Z,ignzshk6,serial-reaction-time,NA,R,2,1,51,1234,0,4,400.5,414,T
2023-04-12T23:39:09Z,ignzshk6,serial-reaction-time,1,R,2,0,51,1234,0,4,646.3000000007451,414,T
2023-04-12T23:39:09Z,ignzshk6,serial-reaction-time,1,P,2,1,52,1234,0,2,322.5,142,H
2023-04-12T23:39:10Z,ignzshk6,serial-reaction-time,1,R,2,1,53,1234,0,2,280.80000000074506,422,L
2023-04-12T23:39:10Z,ignzshk6,serial-reaction-time,1,P,2,1,54,1234,0,3,375.30000000074506,223,H
2023-04-12T23:39:11Z,ignzshk6,serial-reaction-time,1,R,2,1,55,1234,0,3,247.70000000298023,233,H
2023-04-12T23:39:11Z,ignzshk6,serial-reaction-time,1,P,2,1,56,1234,0,4,341.8999999985099,334,H
2023-04-12T23:39:12Z,ignzshk6,serial-reaction-time,1,R,2,1,57,1234,0,4,262.30000000074506,344,H
2023-04-12T23:39:12Z,ignzshk6,serial-reaction-time,1,P,2,1,58,1234,0,1,316,441,H
2023-04-12T23:39:12Z,ignzshk6,serial-reaction-time,NA,R,2,1,59,1234,0,3,229.29999999701977,413,L
2023-04-12T23:39:13Z,ignzshk6,serial-reaction-time,1,R,2,0,59,1234,0,3,530.3999999985099,413,L
2023-04-12T23:39:13Z,ignzshk6,serial-reaction-time,1,P,2,1,60,1234,0,2,274.19999999925494,132,H
2023-04-12T23:39:14Z,ignzshk6,serial-reaction-time,1,R,2,1,61,1234,0,4,343.6000000014901,324,H
2023-04-12T23:39:14Z,ignzshk6,serial-reaction-time,1,P,2,1,62,1234,0,3,420.5999999977648,243,H
2023-04-12T23:39:14Z,ignzshk6,serial-reaction-time,NA,R,2,1,63,1234,0,2,273.80000000074506,432,L
2023-04-12T23:39:15Z,ignzshk6,serial-reaction-time,1,R,2,0,63,1234,0,2,582.3000000007451,432,L
2023-04-12T23:39:15Z,ignzshk6,serial-reaction-time,1,P,2,1,64,1234,0,4,405.19999999925494,324,H
2023-04-12T23:39:16Z,ignzshk6,serial-reaction-time,1,R,2,1,65,1234,0,3,383.80000000074506,243,H
2023-04-12T23:39:16Z,ignzshk6,serial-reaction-time,1,P,2,1,66,1234,0,1,290.6000000014901,431,H
2023-04-12T23:39:17Z,ignzshk6,serial-reaction-time,1,R,2,1,67,1234,0,4,379.5,314,H
2023-04-12T23:39:17Z,ignzshk6,serial-reaction-time,1,P,2,1,68,1234,0,2,276.5,142,H
2023-04-12T23:39:18Z,ignzshk6,serial-reaction-time,1,R,2,1,69,1234,0,4,400.1000000014901,424,T
2023-04-12T23:39:18Z,ignzshk6,serial-reaction-time,1,P,2,1,70,1234,0,3,414.6000000014901,243,H
2023-04-12T23:39:19Z,ignzshk6,serial-reaction-time,1,R,2,1,71,1234,0,1,305.8999999985099,431,H
2023-04-12T23:39:19Z,ignzshk6,serial-reaction-time,1,P,2,1,72,1234,0,4,360,314,H
2023-04-12T23:39:20Z,ignzshk6,serial-reaction-time,1,R,2,1,73,1234,0,1,383.19999999925494,141,T
2023-04-12T23:39:20Z,ignzshk6,serial-reaction-time,1,P,2,1,74,1234,0,1,308.30000000074506,411,H
2023-04-12T23:39:21Z,ignzshk6,serial-reaction-time,1,R,2,1,75,1234,0,2,395.3999999985099,112,H
2023-04-12T23:39:21Z,ignzshk6,serial-reaction-time,1,P,2,1,76,1234,0,2,249.40000000223517,122,H
2023-04-12T23:39:21Z,ignzshk6,serial-reaction-time,1,R,2,1,77,1234,0,3,352.69999999925494,223,H
2023-04-12T23:39:22Z,ignzshk6,serial-reaction-time,1,P,2,1,78,1234,0,3,248.29999999701977,233,H
