datetime,id,trial_type,correct,p_or_r,block,first_response,trial_number,sequence,is_practice,correct_pos,cumulative_rt,actual_triplet,triplet_type
2022-12-02T18:19:44Z,c8cu3c3m,fullscreen,NA,NA,NA,NA,NA,NA,NA,NA,NA,NA,NA
2022-12-02T18:19:50Z,c8cu3c3m,html-keyboard-response,NA,NA,NA,NA,NA,NA,NA,NA,NA,NA,NA
2022-12-02T18:19:52Z,c8cu3c3m,serial-reaction-time,1,R,1,1,1,4123,0,2,384,2,X
2022-12-02T18:19:52Z,c8cu3c3m,serial-reaction-time,1,P,1,1,2,4123,0,4,308,24,X
2022-12-02T18:19:53Z,c8cu3c3m,serial-reaction-time,1,R,1,1,3,4123,0,3,385,243,H
2022-12-02T18:19:53Z,c8cu3c3m,serial-reaction-time,1,P,1,1,4,4123,0,1,307,431,H
2022-12-02T18:19:54Z,c8cu3c3m,serial-reaction-time,1,R,1,1,5,4123,0,4,334,314,H
2022-12-02T18:19:54Z,c8cu3c3m,serial-reaction-time,1,P,1,1,6,4123,0,2,371,142,H
2022-12-02T18:19:55Z,c8cu3c3m,serial-reaction-time,1,R,1,1,7,4123,0,1,236,421,H
2022-12-02T18:19:55Z,c8cu3c3m,serial-reaction-time,1,P,1,1,8,4123,0,3,363,213,H
2022-12-02T18:19:56Z,c8cu3c3m,serial-reaction-time,1,R,1,1,9,4123,0,1,273,131,T
2022-12-02T18:19:56Z,c8cu3c3m,serial-reaction-time,1,P,1,1,10,4123,0,4,340,314,H
2022-12-02T18:19:56Z,c8cu3c3m,serial-reaction-time,1,R,1,1,11,4123,0,1,321,141,T
2022-12-02T18:19:57Z,c8cu3c3m,serial-reaction-time,1,P,1,1,12,4123,0,1,414,411,H
2022-12-02T18:19:57Z,c8cu3c3m,serial-reaction-time,NA,R,1,1,13,4123,0,2,331,112,H
2022-12-02T18:19:58Z,c8cu3c3m,serial-reaction-time,1,R,1,0,13,4123,0,2,706,112,H
2022-12-02T18:19:58Z,c8cu3c3m,serial-reaction-time,1,P,1,1,14,4123,0,2,355,122,H
2022-12-02T18:19:59Z,c8cu3c3m,serial-reaction-time,1,R,1,1,15,4123,0,3,345,223,H
2022-12-02T18:19:59Z,c8cu3c3m,serial-reaction-time,1,P,1,1,16,4123,0,3,335,233,H
2022-12-02T18:20:00Z,c8cu3c3m,serial-reaction-time,1,R,1,1,17,4123,0,1,290,331,L
2022-12-02T18:20:00Z,c8cu3c3m,serial-reaction-time,1,P,1,1,18,4123,0,4,335,314,H
2022-12-02T18:20:01Z,c8cu3c3m,serial-reaction-time,1,R,1,1,19,4123,0,1,299,141,T
2022-12-02T18:20:01Z,c8cu3c3m,serial-reaction-time,1,P,1,1,20,4123,0,1,358,411,H
2022-12-02T18:20:02Z,c8cu3c3m,serial-reaction-time,1,R,1,1,21,4123,0,3,344,113,L
2022-12-02T18:20:02Z,c8cu3c3m,serial-reaction-time,1,P,1,1,22,4123,0,2,430,132,H
2022-12-02T18:20:03Z,c8cu3c3m,serial-reaction-time,1,R,1,1,23,4123,0,3,340,323,T
2022-12-02T18:20:03Z,c8cu3c3m,serial-reaction-time,1,P,1,1,24,4123,0,3,345,233,H
2022-12-02T18:20:04Z,c8cu3c3m,serial-reaction-time,NA,R,1,1,25,4123,0,2,257,332,L
2022-12-02T18:20:04Z,c8cu3c3m,serial-reaction-time,1,R,1,0,25,4123,0,2,606,332,L
2022-12-02T18:20:04Z,c8cu3c3m,serial-reaction-time,1,P,1,1,26,4123,0,4,367,324,H
2022-12-02T18:20:05Z,c8cu3c3m,serial-reaction-time,1,R,1,1,27,4123,0,1,315,241,L
2022-12-02T18:20:05Z,c8cu3c3m,serial-reaction-time,1,P,1,1,28,4123,0,1,505,411,H
2022-12-02T18:20:06Z,c8cu3c3m,serial-reaction-time,1,R,1,1,29,4123,0,2,461,112,H
2022-12-02T18:20:07Z,c8cu3c3m,serial-reaction-time,1,P,1,1,30,4123,0,2,336,122,H
2022-12-02T18:20:07Z,c8cu3c3m,serial-reaction-time,1,R,1,1,31,4123,0,4,352,224,L
2022-12-02T18:20:08Z,c8cu3c3m,serial-reaction-time,1,P,1,1,32,4123,0,3,461,243,H
2022-12-02T18:20:08Z,c8cu3c3m,serial-reaction-time,1,R,1,1,33,4123,0,3,382,433,L
2022-12-02T18:20:09Z,c8cu3c3m,serial-reaction-time,1,P,1,1,34,4123,0,4,358,334,H
2022-12-02T18:20:09Z,c8cu3c3m,serial-reaction-time,1,R,1,1,35,4123,0,4,363,344,H
2022-12-02T18:20:10Z,c8cu3c3m,serial-reaction-time,1,P,1,1,36,4123,0,1,298,441,H
2022-12-02T18:20:10Z,c8cu3c3m,serial-reaction-time,1,R,1,1,37,4123,0,2,391,412,L
2022-12-02T18:20:11Z,c8cu3c3m,serial-reaction-time,1,P,1,1,38,4123,0,2,350,122,H
2022-12-02T18:20:11Z,c8cu3c3m,serial-reaction-time,1,R,1,1,39,4123,0,2,383,222,R
2022-12-02T18:20:12Z,c8cu3c3m,serial-reaction-time,1,P,1,1,40,4123,0,3,324,223,H
2022-12-02T18:20:12Z,c8cu3c3m,serial-reaction-time,1,R,1,1,41,4123,0,2,468,232,T
2022-12-02T18:20:13Z,c8cu3c3m,serial-reaction-time,1,P,1,1,42,4123,0,4,404,324,H
2022-12-02T18:20:13Z,c8cu3c3m,serial-reaction-time,NA,R,1,1,43,4123,0,3,351,243,H
2022-12-02T18:20:13Z,c8cu3c3m,serial-reaction-time,1,R,1,0,43,4123,0,3,559,243,H
2022-12-02T18:20:14Z,c8cu3c3m,serial-reaction-time,1,P,1,1,44,4123,0,1,364,431,H
2022-12-02T18:20:14Z,c8cu3c3m,serial-reaction-time,1,R,1,1,45,4123,0,3,348,313,T
2022-12-02T18:20:15Z,c8cu3c3m,serial-reaction-time,1,P,1,1,46,4123,0,2,341,132,H
2022-12-02T18:20:15Z,c8cu3c3m,serial-reaction-time,1,R,1,1,47,4123,0,2,320,322,L
2022-12-02T18:20:16Z,c8cu3c3m,serial-reaction-time,1,P,1,1,48,4123,0,3,322,223,H
2022-12-02T18:20:16Z,c8cu3c3m,serial-reaction-time,1,R,1,1,49,4123,0,2,342,232,T
2022-12-02T18:20:17Z,c8cu3c3m,serial-reaction-time,1,P,1,1,50,4123,0,4,334,324,H
2022-12-02T18:20:17Z,c8cu3c3m,serial-reaction-time,1,R,1,1,51,4123,0,4,375,244,L
2022-12-02T18:20:18Z,c8cu3c3m,serial-reaction-time,1,P,1,1,52,4123,0,1,339,441,H
2022-12-02T18:20:18Z,c8cu3c3m,serial-reaction-time,1,R,1,1,53,4123,0,1,345,411,H
2022-12-02T18:20:19Z,c8cu3c3m,serial-reaction-time,1,P,1,1,54,4123,0,2,347,112,H
2022-12-02T18:20:19Z,c8cu3c3m,serial-reaction-time,1,R,1,1,55,4123,0,4,407,124,L
2022-12-02T18:20:20Z,c8cu3c3m,serial-reaction-time,1,P,1,1,56,4123,0,3,343,243,H
2022-12-02T18:20:20Z,c8cu3c3m,serial-reaction-time,NA,R,1,1,57,4123,0,2,399,432,L
2022-12-02T18:20:20Z,c8cu3c3m,serial-reaction-time,1,R,1,0,57,4123,0,2,554,432,L
2022-12-02T18:20:21Z,c8cu3c3m,serial-reaction-time,1,P,1,1,58,4123,0,4,440,324,H
2022-12-02T18:20:22Z,c8cu3c3m,serial-reaction-time,1,R,1,1,59,4123,0,2,350,242,T
2022-12-02T18:20:22Z,c8cu3c3m,serial-reaction-time,1,P,1,1,60,4123,0,1,394,421,H
2022-12-02T18:20:23Z,c8cu3c3m,serial-reaction-time,1,R,1,1,61,4123,0,1,317,211,L
2022-12-02T18:20:23Z,c8cu3c3m,serial-reaction-time,1,P,1,1,62,4123,0,2,345,112,H
2022-12-02T18:20:23Z,c8cu3c3m,serial-reaction-time,1,R,1,1,63,4123,0,2,312,122,H
2022-12-02T18:20:24Z,c8cu3c3m,serial-reaction-time,1,P,1,1,64,4123,0,3,360,223,H
2022-12-02T18:20:24Z,c8cu3c3m,serial-reaction-time,1,R,1,1,65,4123,0,2,389,232,T
2022-12-02T18:20:25Z,c8cu3c3m,serial-reaction-time,1,P,1,1,66,4123,0,4,320,324,H
2022-12-02T18:20:25Z,c8cu3c3m,serial-reaction-time,1,R,1,1,67,4123,0,4,337,244,L
2022-12-02T18:20:26Z,c8cu3c3m,serial-reaction-time,1,P,1,1,68,4123,0,1,436,441,H
2022-12-02T18:20:26Z,c8cu3c3m,serial-reaction-time,1,R,1,1,69,4123,0,1,334,411,H
2022-12-02T18:20:27Z,c8cu3c3m,serial-reaction-time,1,P,1,1,70,4123,0,2,330,112,H
2022-12-02T18:20:27Z,c8cu3c3m,serial-reaction-time,1,R,1,1,71,4123,0,3,411,123,L
2022-12-02T18:20:28Z,c8cu3c3m,serial-reaction-time,1,P,1,1,72,4123,0,3,326,233,H
2022-12-02T18:20:28Z,c8cu3c3m,serial-reaction-time,1,R,1,1,73,4123,0,1,350,331,L
2022-12-02T18:20:29Z,c8cu3c3m,serial-reaction-time,1,P,1,1,74,4123,0,4,337,314,H
2022-12-02T18:20:29Z,c8cu3c3m,serial-reaction-time,1,R,1,1,75,4123,0,4,314,144,L
2022-12-02T18:20:30Z,c8cu3c3m,serial-reaction-time,1,P,1,1,76,4123,0,1,412,441,H
2022-12-02T18:20:30Z,c8cu3c3m,serial-reaction-time,NA,R,1,1,77,4123,0,4,322,414,T
2022-12-02T18:20:31Z,c8cu3c3m,serial-reaction-time,1,R,1,0,77,4123,0,4,754,414,T
2022-12-02T18:20:31Z,c8cu3c3m,serial-reaction-time,1,P,1,1,78,4123,0,2,441,142,H
2022-12-02T18:20:32Z,c8cu3c3m,serial-reaction-time,1,R,1,1,79,4123,0,4,351,424,T
2022-12-02T18:20:32Z,c8cu3c3m,serial-reaction-time,1,P,1,1,80,4123,0,3,427,243,H
2022-12-02T18:20:37Z,c8cu3c3m,html-keyboard-response,NA,NA,NA,NA,NA,NA,NA,NA,NA,NA,NA
2022-12-02T18:20:38Z,c8cu3c3m,html-keyboard-response,NA,NA,NA,NA,NA,NA,NA,NA,NA,NA,NA
2022-12-02T18:20:39Z,c8cu3c3m,serial-reaction-time,1,R,2,1,1,4123,0,2,341,2,X
2022-12-02T18:20:40Z,c8cu3c3m,serial-reaction-time,1,P,2,1,2,4123,0,4,335,24,X
2022-12-02T18:20:40Z,c8cu3c3m,serial-reaction-time,1,R,2,1,3,4123,0,1,322,241,L
2022-12-02T18:20:41Z,c8cu3c3m,serial-reaction-time,1,P,2,1,4,4123,0,1,315,411,H
2022-12-02T18:20:41Z,c8cu3c3m,serial-reaction-time,1,R,2,1,5,4123,0,3,306,113,L
2022-12-02T18:20:42Z,c8cu3c3m,serial-reaction-time,1,P,2,1,6,4123,0,2,335,132,H
2022-12-02T18:20:42Z,c8cu3c3m,serial-reaction-time,1,R,2,1,7,4123,0,2,308,322,L
2022-12-02T18:20:43Z,c8cu3c3m,serial-reaction-time,1,P,2,1,8,4123,0,3,358,223,H
2022-12-02T18:20:43Z,c8cu3c3m,serial-reaction-time,1,R,2,1,9,4123,0,2,368,232,T
2022-12-02T18:20:44Z,c8cu3c3m,serial-reaction-time,1,P,2,1,10,4123,0,4,355,324,H
2022-12-02T18:20:44Z,c8cu3c3m,serial-reaction-time,NA,R,2,1,11,4123,0,3,312,243,H
2022-12-02T18:20:44Z,c8cu3c3m,serial-reaction-time,1,R,2,0,11,4123,0,3,616,243,H
2022-12-02T18:20:45Z,c8cu3c3m,serial-reaction-time,1,P,2,1,12,4123,0,1,336,431,H
2022-12-02T18:20:45Z,c8cu3c3m,serial-reaction-time,1,R,2,1,13,4123,0,4,287,314,H
2022-12-02T18:20:46Z,c8cu3c3m,serial-reaction-time,1,P,2,1,14,4123,0,2,358,142,H
2022-12-02T18:20:46Z,c8cu3c3m,serial-reaction-time,1,R,2,1,15,4123,0,2,310,422,L
2022-12-02T18:20:47Z,c8cu3c3m,serial-reaction-time,1,P,2,1,16,4123,0,3,303,223,H
2022-12-02T18:20:47Z,c8cu3c3m,serial-reaction-time,1,R,2,1,17,4123,0,4,355,234,L
2022-12-02T18:20:48Z,c8cu3c3m,serial-reaction-time,1,P,2,1,18,4123,0,4,338,344,H
2022-12-02T18:20:48Z,c8cu3c3m,serial-reaction-time,1,R,2,1,19,4123,0,1,305,441,H
2022-12-02T18:20:49Z,c8cu3c3m,serial-reaction-time,1,P,2,1,20,4123,0,1,344,411,H
2022-12-02T18:20:49Z,c8cu3c3m,serial-reaction-time,1,R,2,1,21,4123,0,4,360,114,L
2022-12-02T18:20:50Z,c8cu3c3m,serial-reaction-time,1,P,2,1,22,4123,0,2,359,142,H
2022-12-02T18:20:50Z,c8cu3c3m,serial-reaction-time,1,R,2,1,23,4123,0,3,400,423,L
2022-12-02T18:20:51Z,c8cu3c3m,serial-reaction-time,1,P,2,1,24,4123,0,3,350,233,H
2022-12-02T18:20:51Z,c8cu3c3m,serial-reaction-time,NA,R,2,1,25,4123,0,2,296,332,L
2022-12-02T18:20:51Z,c8cu3c3m,serial-reaction-time,1,R,2,0,25,4123,0,2,625,332,L
2022-12-02T18:20:52Z,c8cu3c3m,serial-reaction-time,1,P,2,1,26,4123,0,4,386,324,H
2022-12-02T18:20:52Z,c8cu3c3m,serial-reaction-time,1,R,2,1,27,4123,0,2,402,242,T
2022-12-02T18:20:53Z,c8cu3c3m,serial-reaction-time,1,P,2,1,28,4123,0,1,439,421,H
2022-12-02T18:20:54Z,c8cu3c3m,serial-reaction-time,1,R,2,1,29,4123,0,3,540,213,H
2022-12-02T18:20:54Z,c8cu3c3m,serial-reaction-time,1,P,2,1,30,4123,0,2,345,132,H
2022-12-02T18:20:55Z,c8cu3c3m,serial-reaction-time,1,R,2,1,31,4123,0,3,341,323,T
2022-12-02T18:20:55Z,c8cu3c3m,serial-reaction-time,1,P,2,1,32,4123,0,3,332,233,H
2022-12-02T18:20:56Z,c8cu3c3m,serial-reaction-time,NA,R,2,1,33,4123,0,2,362,332,L
2022-12-02T18:20:56Z,c8cu3c3m,serial-reaction-time,1,R,2,0,33,4123,0,2,686,332,L
2022-12-02T18:20:56Z,c8cu3c3m,serial-reaction-time,1,P,2,1,34,4123,0,4,346,324,H
2022-12-02T18:20:57Z,c8cu3c3m,serial-reaction-time,1,R,2,1,35,4123,0,4,308,244,L
2022-12-02T18:20:57Z,c8cu3c3m,serial-reaction-time,1,P,2,1,36,4123,0,1,343,441,H
2022-12-02T18:20:58Z,c8cu3c3m,serial-reaction-time,1,R,2,1,37,4123,0,3,406,413,L
2022-12-02T18:20:58Z,c8cu3c3m,serial-reaction-time,1,P,2,1,38,4123,0,2,330,132,H
2022-12-02T18:20:59Z,c8cu3c3m,serial-reaction-time,1,R,2,1,39,4123,0,1,374,321,L
2022-12-02T18:20:59Z,c8cu3c3m,serial-reaction-time,1,P,2,1,40,4123,0,3,431,213,H
2022-12-02T18:21:00Z,c8cu3c3m,serial-reaction-time,1,R,2,1,41,4123,0,2,364,132,H
2022-12-02T18:21:00Z,c8cu3c3m,serial-reaction-time,1,P,2,1,42,4123,0,4,347,324,H
2022-12-02T18:21:01Z,c8cu3c3m,serial-reaction-time,1,R,2,1,43,4123,0,2,418,242,T
2022-12-02T18:21:01Z,c8cu3c3m,serial-reaction-time,1,P,2,1,44,4123,0,1,359,421,H
2022-12-02T18:21:02Z,c8cu3c3m,serial-reaction-time,1,R,2,1,45,4123,0,3,337,213,H
2022-12-02T18:21:02Z,c8cu3c3m,serial-reaction-time,1,P,2,1,46,4123,0,2,329,132,H
2022-12-02T18:21:03Z,c8cu3c3m,serial-reaction-time,1,R,2,1,47,4123,0,4,377,324,H
2022-12-02T18:21:03Z,c8cu3c3m,serial-reaction-time,1,P,2,1,48,4123,0,3,330,243,H
2022-12-02T18:21:04Z,c8cu3c3m,serial-reaction-time,1,R,2,1,49,4123,0,2,365,432,L
2022-12-02T18:21:04Z,c8cu3c3m,serial-reaction-time,1,P,2,1,50,4123,0,4,432,324,H
2022-12-02T18:21:05Z,c8cu3c3m,serial-reaction-time,1,R,2,1,51,4123,0,4,415,244,L
2022-12-02T18:21:05Z,c8cu3c3m,serial-reaction-time,1,P,2,1,52,4123,0,1,398,441,H
2022-12-02T18:21:06Z,c8cu3c3m,serial-reaction-time,1,R,2,1,53,4123,0,2,400,412,L
2022-12-02T18:21:07Z,c8cu3c3m,serial-reaction-time,1,P,2,1,54,4123,0,2,336,122,H
2022-12-02T18:21:07Z,c8cu3c3m,serial-reaction-time,1,R,2,1,55,4123,0,3,306,223,H
2022-12-02T18:21:07Z,c8cu3c3m,serial-reaction-time,1,P,2,1,56,4123,0,3,312,233,H
2022-12-02T18:21:08Z,c8cu3c3m,serial-reaction-time,1,R,2,1,57,4123,0,4,356,334,H
2022-12-02T18:21:08Z,c8cu3c3m,serial-reaction-time,1,P,2,1,58,4123,0,4,338,344,H
2022-12-02T18:21:09Z,c8cu3c3m,serial-reaction-time,1,R,2,1,59,4123,0,1,315,441,H
2022-12-02T18:21:09Z,c8cu3c3m,serial-reaction-time,1,P,2,1,60,4123,0,1,307,411,H
2022-12-02T18:21:10Z,c8cu3c3m,serial-reaction-time,1,R,2,1,61,4123,0,3,314,113,L
2022-12-02T18:21:10Z,c8cu3c3m,serial-reaction-time,1,P,2,1,62,4123,0,2,357,132,H
2022-12-02T18:21:11Z,c8cu3c3m,serial-reaction-time,1,R,2,1,63,4123,0,1,348,321,L
2022-12-02T18:21:11Z,c8cu3c3m,serial-reaction-time,1,P,2,1,64,4123,0,3,361,213,H
2022-12-02T18:21:12Z,c8cu3c3m,serial-reaction-time,1,R,2,1,65,4123,0,3,362,133,L
2022-12-02T18:21:12Z,c8cu3c3m,serial-reaction-time,1,P,2,1,66,4123,0,4,310,334,H
2022-12-02T18:21:13Z,c8cu3c3m,serial-reaction-time,1,R,2,1,67,4123,0,3,499,343,T
2022-12-02T18:21:13Z,c8cu3c3m,serial-reaction-time,1,P,2,1,68,4123,0,1,354,431,H
2022-12-02T18:21:14Z,c8cu3c3m,serial-reaction-time,1,R,2,1,69,4123,0,2,511,312,L
2022-12-02T18:21:14Z,c8cu3c3m,serial-reaction-time,1,P,2,1,70,4123,0,2,291,122,H
2022-12-02T18:21:15Z,c8cu3c3m,serial-reaction-time,1,R,2,1,71,4123,0,4,312,224,L
2022-12-02T18:21:15Z,c8cu3c3m,serial-reaction-time,1,P,2,1,72,4123,0,3,387,243,H
2022-12-02T18:21:16Z,c8cu3c3m,serial-reaction-time,1,R,2,1,73,4123,0,1,350,431,H
2022-12-02T18:21:16Z,c8cu3c3m,serial-reaction-time,1,P,2,1,74,4123,0,4,431,314,H
2022-12-02T18:21:17Z,c8cu3c3m,serial-reaction-time,1,R,2,1,75,4123,0,4,340,144,L
2022-12-02T18:21:17Z,c8cu3c3m,serial-reaction-time,1,P,2,1,76,4123,0,1,338,441,H
2022-12-02T18:21:18Z,c8cu3c3m,serial-reaction-time,1,R,2,1,77,4123,0,1,306,411,H
2022-12-02T18:21:18Z,c8cu3c3m,serial-reaction-time,1,P,2,1,78,4123,0,2,428,112,H
2022-12-02T18:21:19Z,c8cu3c3m,serial-reaction-time,NA,R,2,1,79,4123,0,3,346,123,L
2022-12-02T18:21:19Z,c8cu3c3m,serial-reaction-time,1,R,2,0,79,4123,0,3,676,123,L
2022-12-02T18:21:20Z,c8cu3c3m,serial-reaction-time,1,P,2,1,80,4123,0,3,338,233,H
2022-12-02T18:21:25Z,c8cu3c3m,html-keyboard-response,NA,NA,NA,NA,NA,NA,NA,NA,NA,NA,NA
2022-12-02T18:21:25Z,c8cu3c3m,html-keyboard-response,NA,NA,NA,NA,NA,NA,NA,NA,NA,NA,NA
2022-12-02T18:21:26Z,c8cu3c3m,serial-reaction-time,1,R,3,1,1,4123,0,4,331,4,X
2022-12-02T18:21:27Z,c8cu3c3m,serial-reaction-time,1,P,3,1,2,4123,0,4,289,44,X
2022-12-02T18:21:27Z,c8cu3c3m,serial-reaction-time,1,R,3,1,3,4123,0,2,390,442,L
2022-12-02T18:21:28Z,c8cu3c3m,serial-reaction-time,1,P,3,1,4,4123,0,1,400,421,H
2022-12-02T18:21:28Z,c8cu3c3m,serial-reaction-time,1,R,3,1,5,4123,0,3,338,213,H
2022-12-02T18:21:29Z,c8cu3c3m,serial-reaction-time,1,P,3,1,6,4123,0,2,337,132,H
2022-12-02T18:21:29Z,c8cu3c3m,serial-reaction-time,1,R,3,1,7,4123,0,3,308,323,T
2022-12-02T18:21:30Z,c8cu3c3m,serial-reaction-time,1,P,3,1,8,4123,0,3,313,233,H
2022-12-02T18:21:30Z,c8cu3c3m,serial-reaction-time,1,R,3,1,9,4123,0,1,268,331,L
2022-12-02T18:21:31Z,c8cu3c3m,serial-reaction-time,1,P,3,1,10,4123,0,4,308,314,H
2022-12-02T18:21:31Z,c8cu3c3m,serial-reaction-time,1,R,3,1,11,4123,0,1,359,141,T
2022-12-02T18:21:32Z,c8cu3c3m,serial-reaction-time,1,P,3,1,12,4123,0,1,308,411,H
2022-12-02T18:21:32Z,c8cu3c3m,serial-reaction-time,1,R,3,1,13,4123,0,2,353,112,H
2022-12-02T18:21:33Z,c8cu3c3m,serial-reaction-time,1,P,3,1,14,4123,0,2,314,122,H
2022-12-02T18:21:33Z,c8cu3c3m,serial-reaction-time,1,R,3,1,15,4123,0,4,519,224,L
2022-12-02T18:21:34Z,c8cu3c3m,serial-reaction-time,1,P,3,1,16,4123,0,3,406,243,H
2022-12-02T18:21:34Z,c8cu3c3m,serial-reaction-time,1,R,3,1,17,4123,0,3,303,433,L
2022-12-02T18:21:35Z,c8cu3c3m,serial-reaction-time,1,P,3,1,18,4123,0,4,338,334,H
2022-12-02T18:21:35Z,c8cu3c3m,serial-reaction-time,1,R,3,1,19,4123,0,2,343,342,L
2022-12-02T18:21:36Z,c8cu3c3m,serial-reaction-time,1,P,3,1,20,4123,0,1,386,421,H
2022-12-02T18:21:36Z,c8cu3c3m,serial-reaction-time,1,R,3,1,21,4123,0,3,274,213,H
2022-12-02T18:21:37Z,c8cu3c3m,serial-reaction-time,1,P,3,1,22,4123,0,2,375,132,H
2022-12-02T18:21:37Z,c8cu3c3m,serial-reaction-time,1,R,3,1,23,4123,0,1,287,321,L
2022-12-02T18:21:37Z,c8cu3c3m,serial-reaction-time,1,P,3,1,24,4123,0,3,340,213,H
2022-12-02T18:21:38Z,c8cu3c3m,serial-reaction-time,1,R,3,1,25,4123,0,2,326,132,H
2022-12-02T18:21:38Z,c8cu3c3m,serial-reaction-time,1,P,3,1,26,4123,0,4,346,324,H
2022-12-02T18:21:39Z,c8cu3c3m,serial-reaction-time,1,R,3,1,27,4123,0,1,351,241,L
2022-12-02T18:21:39Z,c8cu3c3m,serial-reaction-time,1,P,3,1,28,4123,0,1,329,411,H
2022-12-02T18:21:40Z,c8cu3c3m,serial-reaction-time,1,R,3,1,29,4123,0,1,297,111,R
2022-12-02T18:21:40Z,c8cu3c3m,serial-reaction-time,1,P,3,1,30,4123,0,2,368,112,H
2022-12-02T18:21:41Z,c8cu3c3m,serial-reaction-time,1,R,3,1,31,4123,0,3,392,123,L
2022-12-02T18:21:41Z,c8cu3c3m,serial-reaction-time,1,P,3,1,32,4123,0,3,330,233,H
2022-12-02T18:21:42Z,c8cu3c3m,serial-reaction-time,1,R,3,1,33,4123,0,4,305,334,H
2022-12-02T18:21:42Z,c8cu3c3m,serial-reaction-time,1,P,3,1,34,4123,0,4,332,344,H
2022-12-02T18:21:43Z,c8cu3c3m,serial-reaction-time,1,R,3,1,35,4123,0,3,373,443,L
2022-12-02T18:21:43Z,c8cu3c3m,serial-reaction-time,1,P,3,1,36,4123,0,1,335,431,H
2022-12-02T18:21:44Z,c8cu3c3m,serial-reaction-time,1,R,3,1,37,4123,0,3,360,313,T
2022-12-02T18:21:44Z,c8cu3c3m,serial-reaction-time,1,P,3,1,38,4123,0,2,320,132,H
2022-12-02T18:21:45Z,c8cu3c3m,serial-reaction-time,1,R,3,1,39,4123,0,2,344,322,L
2022-12-02T18:21:45Z,c8cu3c3m,serial-reaction-time,1,P,3,1,40,4123,0,3,287,223,H
2022-12-02T18:21:45Z,c8cu3c3m,serial-reaction-time,1,R,3,1,41,4123,0,1,265,231,L
2022-12-02T18:21:46Z,c8cu3c3m,serial-reaction-time,NA,P,3,1,42,4123,0,4,329,314,H
2022-12-02T18:21:46Z,c8cu3c3m,serial-reaction-time,1,P,3,0,42,4123,0,4,457,314,H
2022-12-02T18:21:47Z,c8cu3c3m,serial-reaction-time,1,R,3,1,43,4123,0,1,324,141,T
2022-12-02T18:21:47Z,c8cu3c3m,serial-reaction-time,1,P,3,1,44,4123,0,1,342,411,H
2022-12-02T18:21:47Z,c8cu3c3m,serial-reaction-time,1,R,3,1,45,4123,0,3,299,113,L
2022-12-02T18:21:48Z,c8cu3c3m,serial-reaction-time,1,P,3,1,46,4123,0,2,753,132,H
2022-12-02T18:21:49Z,c8cu3c3m,serial-reaction-time,1,R,3,1,47,4123,0,2,411,322,L
2022-12-02T18:21:49Z,c8cu3c3m,serial-reaction-time,NA,P,3,1,48,4123,0,3,386,223,H
2022-12-02T18:21:50Z,c8cu3c3m,serial-reaction-time,1,P,3,0,48,4123,0,3,728,223,H
2022-12-02T18:21:50Z,c8cu3c3m,serial-reaction-time,1,R,3,1,49,4123,0,4,348,234,L
2022-12-02T18:21:51Z,c8cu3c3m,serial-reaction-time,1,P,3,1,50,4123,0,4,353,344,H
2022-12-02T18:21:51Z,c8cu3c3m,serial-reaction-time,1,R,3,1,51,4123,0,3,432,443,L
2022-12-02T18:21:52Z,c8cu3c3m,serial-reaction-time,1,P,3,1,52,4123,0,1,340,431,H
2022-12-02T18:21:52Z,c8cu3c3m,serial-reaction-time,1,R,3,1,53,4123,0,4,267,314,H
2022-12-02T18:21:53Z,c8cu3c3m,serial-reaction-time,1,P,3,1,54,4123,0,2,415,142,H
2022-12-02T18:21:53Z,c8cu3c3m,serial-reaction-time,NA,R,3,1,55,4123,0,4,349,424,T
2022-12-02T18:21:54Z,c8cu3c3m,serial-reaction-time,1,R,3,0,55,4123,0,4,739,424,T
2022-12-02T18:21:54Z,c8cu3c3m,serial-reaction-time,1,P,3,1,56,4123,0,3,404,243,H
2022-12-02T18:21:55Z,c8cu3c3m,serial-reaction-time,1,R,3,1,57,4123,0,1,351,431,H
2022-12-02T18:21:55Z,c8cu3c3m,serial-reaction-time,NA,P,3,1,58,4123,0,4,305,314,H
2022-12-02T18:21:55Z,c8cu3c3m,serial-reaction-time,1,P,3,0,58,4123,0,4,413,314,H
2022-12-02T18:21:56Z,c8cu3c3m,serial-reaction-time,1,R,3,1,59,4123,0,3,393,143,L
2022-12-02T18:21:56Z,c8cu3c3m,serial-reaction-time,1,P,3,1,60,4123,0,1,371,431,H
2022-12-02T18:21:57Z,c8cu3c3m,serial-reaction-time,1,R,3,1,61,4123,0,2,581,312,L
2022-12-02T18:21:57Z,c8cu3c3m,serial-reaction-time,1,P,3,1,62,4123,0,2,311,122,H
2022-12-02T18:21:58Z,c8cu3c3m,serial-reaction-time,1,R,3,1,63,4123,0,3,294,223,H
2022-12-02T18:21:58Z,c8cu3c3m,serial-reaction-time,1,P,3,1,64,4123,0,3,318,233,H
2022-12-02T18:21:59Z,c8cu3c3m,serial-reaction-time,1,R,3,1,65,4123,0,3,383,333,R
2022-12-02T18:21:59Z,c8cu3c3m,serial-reaction-time,1,P,3,1,66,4123,0,4,315,334,H
2022-12-02T18:22:00Z,c8cu3c3m,serial-reaction-time,1,R,3,1,67,4123,0,1,359,341,L
2022-12-02T18:22:00Z,c8cu3c3m,serial-reaction-time,1,P,3,1,68,4123,0,1,355,411,H
2022-12-02T18:22:01Z,c8cu3c3m,serial-reaction-time,1,R,3,1,69,4123,0,3,320,113,L
2022-12-02T18:22:01Z,c8cu3c3m,serial-reaction-time,1,P,3,1,70,4123,0,2,339,132,H
2022-12-02T18:22:02Z,c8cu3c3m,serial-reaction-time,1,R,3,1,71,4123,0,2,349,322,L
2022-12-02T18:22:02Z,c8cu3c3m,serial-reaction-time,1,P,3,1,72,4123,0,3,335,223,H
2022-12-02T18:22:03Z,c8cu3c3m,serial-reaction-time,1,R,3,1,73,4123,0,2,438,232,T
2022-12-02T18:22:03Z,c8cu3c3m,serial-reaction-time,1,P,3,1,74,4123,0,4,337,324,H
2022-12-02T18:22:04Z,c8cu3c3m,serial-reaction-time,1,R,3,1,75,4123,0,1,394,241,L
2022-12-02T18:22:04Z,c8cu3c3m,serial-reaction-time,1,P,3,1,76,4123,0,1,292,411,H
2022-12-02T18:22:05Z,c8cu3c3m,serial-reaction-time,1,R,3,1,77,4123,0,3,270,113,L
2022-12-02T18:22:05Z,c8cu3c3m,serial-reaction-time,1,P,3,1,78,4123,0,2,335,132,H
2022-12-02T18:22:06Z,c8cu3c3m,serial-reaction-time,1,R,3,1,79,4123,0,3,426,323,T
2022-12-02T18:22:06Z,c8cu3c3m,serial-reaction-time,1,P,3,1,80,4123,0,3,304,233,H
2022-12-02T18:22:11Z,c8cu3c3m,html-keyboard-response,NA,NA,NA,NA,NA,NA,NA,NA,NA,NA,NA
2022-12-02T18:24:04Z,c8cu3c3m,html-keyboard-response,NA,NA,NA,NA,NA,NA,NA,NA,NA,NA,NA
2022-12-02T18:24:06Z,c8cu3c3m,serial-reaction-time,1,R,4,1,1,4123,0,4,507,4,X
2022-12-02T18:24:06Z,c8cu3c3m,serial-reaction-time,1,P,4,1,2,4123,0,4,314,44,X
2022-12-02T18:24:07Z,c8cu3c3m,serial-reaction-time,1,R,4,1,3,4123,0,1,431,441,H
2022-12-02T18:24:07Z,c8cu3c3m,serial-reaction-time,1,P,4,1,4,4123,0,1,269,411,H
2022-12-02T18:24:08Z,c8cu3c3m,serial-reaction-time,1,R,4,1,5,4123,0,2,355,112,H
2022-12-02T18:24:08Z,c8cu3c3m,serial-reaction-time,1,P,4,1,6,4123,0,2,277,122,H
2022-12-02T18:24:09Z,c8cu3c3m,serial-reaction-time,1,R,4,1,7,4123,0,2,334,222,R
2022-12-02T18:24:09Z,c8cu3c3m,serial-reaction-time,1,P,4,1,8,4123,0,3,326,223,H
2022-12-02T18:24:10Z,c8cu3c3m,serial-reaction-time,1,R,4,1,9,4123,0,2,371,232,T
2022-12-02T18:24:10Z,c8cu3c3m,serial-reaction-time,1,P,4,1,10,4123,0,4,313,324,H
2022-12-02T18:24:11Z,c8cu3c3m,serial-reaction-time,1,R,4,1,11,4123,0,4,331,244,L
2022-12-02T18:24:11Z,c8cu3c3m,serial-reaction-time,1,P,4,1,12,4123,0,1,300,441,H
2022-12-02T18:24:12Z,c8cu3c3m,serial-reaction-time,1,R,4,1,13,4123,0,1,344,411,H
2022-12-02T18:24:12Z,c8cu3c3m,serial-reaction-time,NA,P,4,1,14,4123,0,2,318,112,H
2022-12-02T18:24:12Z,c8cu3c3m,serial-reaction-time,1,P,4,0,14,4123,0,2,437,112,H
2022-12-02T18:24:13Z,c8cu3c3m,serial-reaction-time,1,R,4,1,15,4123,0,2,303,122,H
2022-12-02T18:24:13Z,c8cu3c3m,serial-reaction-time,1,P,4,1,16,4123,0,3,323,223,H
2022-12-02T18:24:13Z,c8cu3c3m,serial-reaction-time,1,R,4,1,17,4123,0,2,283,232,T
2022-12-02T18:24:14Z,c8cu3c3m,serial-reaction-time,1,P,4,1,18,4123,0,4,284,324,H
2022-12-02T18:24:14Z,c8cu3c3m,serial-reaction-time,NA,R,4,1,19,4123,0,3,313,243,H
2022-12-02T18:24:15Z,c8cu3c3m,serial-reaction-time,1,R,4,0,19,4123,0,3,648,243,H
2022-12-02T18:24:15Z,c8cu3c3m,serial-reaction-time,1,P,4,1,20,4123,0,1,289,431,H
2022-12-02T18:24:16Z,c8cu3c3m,serial-reaction-time,1,R,4,1,21,4123,0,1,348,311,L
2022-12-02T18:24:16Z,c8cu3c3m,serial-reaction-time,1,P,4,1,22,4123,0,2,303,112,H
2022-12-02T18:24:17Z,c8cu3c3m,serial-reaction-time,1,R,4,1,23,4123,0,4,448,124,L
2022-12-02T18:24:17Z,c8cu3c3m,serial-reaction-time,1,P,4,1,24,4123,0,3,348,243,H
2022-12-02T18:24:17Z,c8cu3c3m,serial-reaction-time,1,R,4,1,25,4123,0,3,299,433,L
2022-12-02T18:24:18Z,c8cu3c3m,serial-reaction-time,1,P,4,1,26,4123,0,4,359,334,H
2022-12-02T18:24:19Z,c8cu3c3m,serial-reaction-time,1,R,4,1,27,4123,0,2,492,342,L
2022-12-02T18:24:19Z,c8cu3c3m,serial-reaction-time,1,P,4,1,28,4123,0,1,414,421,H
2022-12-02T18:24:20Z,c8cu3c3m,serial-reaction-time,1,R,4,1,29,4123,0,3,348,213,H
2022-12-02T18:24:20Z,c8cu3c3m,serial-reaction-time,1,P,4,1,30,4123,0,2,339,132,H
2022-12-02T18:24:21Z,c8cu3c3m,serial-reaction-time,NA,R,4,1,31,4123,0,4,342,324,H
2022-12-02T18:24:21Z,c8cu3c3m,serial-reaction-time,1,R,4,0,31,4123,0,4,740,324,H
2022-12-02T18:24:22Z,c8cu3c3m,serial-reaction-time,1,P,4,1,32,4123,0,3,411,243,H
2022-12-02T18:24:22Z,c8cu3c3m,serial-reaction-time,NA,R,4,1,33,4123,0,4,328,434,T
2022-12-02T18:24:22Z,c8cu3c3m,serial-reaction-time,1,R,4,0,33,4123,0,4,643,434,T
2022-12-02T18:24:23Z,c8cu3c3m,serial-reaction-time,1,P,4,1,34,4123,0,4,339,344,H
2022-12-02T18:24:23Z,c8cu3c3m,serial-reaction-time,1,R,4,1,35,4123,0,2,463,442,L
2022-12-02T18:24:24Z,c8cu3c3m,serial-reaction-time,1,P,4,1,36,4123,0,1,340,421,H
2022-12-02T18:24:24Z,c8cu3c3m,serial-reaction-time,1,R,4,1,37,4123,0,3,312,213,H
2022-12-02T18:24:25Z,c8cu3c3m,serial-reaction-time,1,P,4,1,38,4123,0,2,322,132,H
2022-12-02T18:24:25Z,c8cu3c3m,serial-reaction-time,1,R,4,1,39,4123,0,3,351,323,T
2022-12-02T18:24:26Z,c8cu3c3m,serial-reaction-time,1,P,4,1,40,4123,0,3,322,233,H
2022-12-02T18:24:26Z,c8cu3c3m,serial-reaction-time,NA,R,4,1,41,4123,0,2,336,332,L
2022-12-02T18:24:27Z,c8cu3c3m,serial-reaction-time,1,R,4,0,41,4123,0,2,672,332,L
2022-12-02T18:24:27Z,c8cu3c3m,serial-reaction-time,1,P,4,1,42,4123,0,4,336,324,H
2022-12-02T18:24:28Z,c8cu3c3m,serial-reaction-time,1,R,4,1,43,4123,0,2,372,242,T
2022-12-02T18:24:28Z,c8cu3c3m,serial-reaction-time,1,P,4,1,44,4123,0,1,323,421,H
2022-12-02T18:24:28Z,c8cu3c3m,serial-reaction-time,1,R,4,1,45,4123,0,3,298,213,H
2022-12-02T18:24:29Z,c8cu3c3m,serial-reaction-time,1,P,4,1,46,4123,0,2,440,132,H
2022-12-02T18:24:30Z,c8cu3c3m,serial-reaction-time,1,R,4,1,47,4123,0,4,415,324,H
2022-12-02T18:24:30Z,c8cu3c3m,serial-reaction-time,1,P,4,1,48,4123,0,3,366,243,H
2022-12-02T18:24:31Z,c8cu3c3m,serial-reaction-time,1,R,4,1,49,4123,0,1,341,431,H
2022-12-02T18:24:31Z,c8cu3c3m,serial-reaction-time,NA,P,4,1,50,4123,0,4,348,314,H
2022-12-02T18:24:31Z,c8cu3c3m,serial-reaction-time,1,P,4,0,50,4123,0,4,701,314,H
2022-12-02T18:24:32Z,c8cu3c3m,serial-reaction-time,1,R,4,1,51,4123,0,2,431,142,H
2022-12-02T18:24:32Z,c8cu3c3m,serial-reaction-time,1,P,4,1,52,4123,0,1,332,421,H
2022-12-02T18:24:33Z,c8cu3c3m,serial-reaction-time,1,R,4,1,53,4123,0,2,329,212,T
2022-12-02T18:24:33Z,c8cu3c3m,serial-reaction-time,1,P,4,1,54,4123,0,2,407,122,H
2022-12-02T18:24:34Z,c8cu3c3m,serial-reaction-time,1,R,4,1,55,4123,0,3,353,223,H
2022-12-02T18:24:34Z,c8cu3c3m,serial-reaction-time,1,P,4,1,56,4123,0,3,325,233,H
2022-12-02T18:24:35Z,c8cu3c3m,serial-reaction-time,1,R,4,1,57,4123,0,1,362,331,L
2022-12-02T18:24:35Z,c8cu3c3m,serial-reaction-time,1,P,4,1,58,4123,0,4,377,314,H
2022-12-02T18:24:36Z,c8cu3c3m,serial-reaction-time,1,R,4,1,59,4123,0,1,361,141,T
2022-12-02T18:24:36Z,c8cu3c3m,serial-reaction-time,1,P,4,1,60,4123,0,1,343,411,H
2022-12-02T18:24:37Z,c8cu3c3m,serial-reaction-time,NA,R,4,1,61,4123,0,4,330,114,L
2022-12-02T18:24:37Z,c8cu3c3m,serial-reaction-time,1,R,4,0,61,4123,0,4,710,114,L
2022-12-02T18:24:38Z,c8cu3c3m,serial-reaction-time,1,P,4,1,62,4123,0,2,412,142,H
2022-12-02T18:24:38Z,c8cu3c3m,serial-reaction-time,1,R,4,1,63,4123,0,3,458,423,L
2022-12-02T18:24:39Z,c8cu3c3m,serial-reaction-time,1,P,4,1,64,4123,0,3,367,233,H
2022-12-02T18:24:39Z,c8cu3c3m,serial-reaction-time,1,R,4,1,65,4123,0,3,341,333,R
2022-12-02T18:24:40Z,c8cu3c3m,serial-reaction-time,1,P,4,1,66,4123,0,4,419,334,H
2022-12-02T18:24:40Z,c8cu3c3m,serial-reaction-time,1,R,4,1,67,4123,0,3,363,343,T
2022-12-02T18:24:41Z,c8cu3c3m,serial-reaction-time,1,P,4,1,68,4123,0,1,473,431,H
2022-12-02T18:24:42Z,c8cu3c3m,serial-reaction-time,1,R,4,1,69,4123,0,2,488,312,L
2022-12-02T18:24:42Z,c8cu3c3m,serial-reaction-time,1,P,4,1,70,4123,0,2,290,122,H
2022-12-02T18:24:43Z,c8cu3c3m,serial-reaction-time,1,R,4,1,71,4123,0,2,323,222,R
2022-12-02T18:24:43Z,c8cu3c3m,serial-reaction-time,1,P,4,1,72,4123,0,3,313,223,H
2022-12-02T18:24:43Z,c8cu3c3m,serial-reaction-time,1,R,4,1,73,4123,0,3,307,233,H
2022-12-02T18:24:44Z,c8cu3c3m,serial-reaction-time,1,P,4,1,74,4123,0,4,338,334,H
2022-12-02T18:24:44Z,c8cu3c3m,serial-reaction-time,NA,R,4,1,75,4123,0,3,414,343,T
2022-12-02T18:24:45Z,c8cu3c3m,serial-reaction-time,1,R,4,0,75,4123,0,3,580,343,T
2022-12-02T18:24:45Z,c8cu3c3m,serial-reaction-time,1,P,4,1,76,4123,0,1,416,431,H
2022-12-02T18:24:46Z,c8cu3c3m,serial-reaction-time,1,R,4,1,77,4123,0,3,366,313,T
2022-12-02T18:24:46Z,c8cu3c3m,serial-reaction-time,1,P,4,1,78,4123,0,2,320,132,H
2022-12-02T18:24:47Z,c8cu3c3m,serial-reaction-time,1,R,4,1,79,4123,0,4,346,324,H
2022-12-02T18:24:47Z,c8cu3c3m,serial-reaction-time,1,P,4,1,80,4123,0,3,348,243,H
2022-12-02T18:24:52Z,c8cu3c3m,html-keyboard-response,NA,NA,NA,NA,NA,NA,NA,NA,NA,NA,NA
2022-12-02T18:24:53Z,c8cu3c3m,html-keyboard-response,NA,NA,NA,NA,NA,NA,NA,NA,NA,NA,NA
2022-12-02T18:24:54Z,c8cu3c3m,serial-reaction-time,1,R,5,1,1,4123,0,1,421,1,X
2022-12-02T18:24:55Z,c8cu3c3m,serial-reaction-time,1,P,5,1,2,4123,0,4,398,14,X
2022-12-02T18:24:56Z,c8cu3c3m,serial-reaction-time,1,R,5,1,3,4123,0,3,366,143,L
2022-12-02T18:24:56Z,c8cu3c3m,serial-reaction-time,1,P,5,1,4,4123,0,1,499,431,H
2022-12-02T18:24:57Z,c8cu3c3m,serial-reaction-time,1,R,5,1,5,4123,0,4,414,314,H
2022-12-02T18:24:57Z,c8cu3c3m,serial-reaction-time,1,P,5,1,6,4123,0,2,434,142,H
2022-12-02T18:24:58Z,c8cu3c3m,serial-reaction-time,1,R,5,1,7,4123,0,2,343,422,L
2022-12-02T18:24:58Z,c8cu3c3m,serial-reaction-time,1,P,5,1,8,4123,0,3,303,223,H
2022-12-02T18:24:59Z,c8cu3c3m,serial-reaction-time,1,R,5,1,9,4123,0,1,340,231,L
2022-12-02T18:24:59Z,c8cu3c3m,serial-reaction-time,1,P,5,1,10,4123,0,4,284,314,H
2022-12-02T18:25:00Z,c8cu3c3m,serial-reaction-time,1,R,5,1,11,4123,0,2,296,142,H
2022-12-02T18:25:00Z,c8cu3c3m,serial-reaction-time,1,P,5,1,12,4123,0,1,316,421,H
2022-12-02T18:25:00Z,c8cu3c3m,serial-reaction-time,1,R,5,1,13,4123,0,3,292,213,H
2022-12-02T18:25:01Z,c8cu3c3m,serial-reaction-time,1,P,5,1,14,4123,0,2,336,132,H
2022-12-02T18:25:01Z,c8cu3c3m,serial-reaction-time,1,R,5,1,15,4123,0,2,312,322,L
2022-12-02T18:25:02Z,c8cu3c3m,serial-reaction-time,1,P,5,1,16,4123,0,3,435,223,H
2022-12-02T18:25:02Z,c8cu3c3m,serial-reaction-time,1,R,5,1,17,4123,0,4,326,234,L
2022-12-02T18:25:03Z,c8cu3c3m,serial-reaction-time,1,P,5,1,18,4123,0,4,313,344,H
2022-12-02T18:25:03Z,c8cu3c3m,serial-reaction-time,1,R,5,1,19,4123,0,3,418,443,L
2022-12-02T18:25:04Z,c8cu3c3m,serial-reaction-time,1,P,5,1,20,4123,0,1,339,431,H
2022-12-02T18:25:04Z,c8cu3c3m,serial-reaction-time,1,R,5,1,21,4123,0,3,378,313,T
2022-12-02T18:25:05Z,c8cu3c3m,serial-reaction-time,1,P,5,1,22,4123,0,2,357,132,H
2022-12-02T18:25:06Z,c8cu3c3m,serial-reaction-time,1,R,5,1,23,4123,0,3,559,323,T
2022-12-02T18:25:06Z,c8cu3c3m,serial-reaction-time,1,P,5,1,24,4123,0,3,368,233,H
2022-12-02T18:25:07Z,c8cu3c3m,serial-reaction-time,1,R,5,1,25,4123,0,2,344,332,L
2022-12-02T18:25:07Z,c8cu3c3m,serial-reaction-time,1,P,5,1,26,4123,0,4,317,324,H
2022-12-02T18:25:07Z,c8cu3c3m,serial-reaction-time,1,R,5,1,27,4123,0,2,328,242,T
2022-12-02T18:25:08Z,c8cu3c3m,serial-reaction-time,1,P,5,1,28,4123,0,1,323,421,H
2022-12-02T18:25:08Z,c8cu3c3m,serial-reaction-time,1,R,5,1,29,4123,0,3,282,213,H
2022-12-02T18:25:09Z,c8cu3c3m,serial-reaction-time,1,P,5,1,30,4123,0,2,318,132,H
2022-12-02T18:25:09Z,c8cu3c3m,serial-reaction-time,1,R,5,1,31,4123,0,1,276,321,L
2022-12-02T18:25:10Z,c8cu3c3m,serial-reaction-time,1,P,5,1,32,4123,0,3,318,213,H
2022-12-02T18:25:10Z,c8cu3c3m,serial-reaction-time,1,R,5,1,33,4123,0,2,333,132,H
2022-12-02T18:25:11Z,c8cu3c3m,serial-reaction-time,1,P,5,1,34,4123,0,4,321,324,H
2022-12-02T18:25:11Z,c8cu3c3m,serial-reaction-time,1,R,5,1,35,4123,0,3,452,243,H
2022-12-02T18:25:12Z,c8cu3c3m,serial-reaction-time,1,P,5,1,36,4123,0,1,314,431,H
2022-12-02T18:25:12Z,c8cu3c3m,serial-reaction-time,1,R,5,1,37,4123,0,2,409,312,L
2022-12-02T18:25:13Z,c8cu3c3m,serial-reaction-time,1,P,5,1,38,4123,0,2,438,122,H
2022-12-02T18:25:13Z,c8cu3c3m,serial-reaction-time,1,R,5,1,39,4123,0,2,301,222,R
2022-12-02T18:25:14Z,c8cu3c3m,serial-reaction-time,1,P,5,1,40,4123,0,3,333,223,H
2022-12-02T18:25:14Z,c8cu3c3m,serial-reaction-time,1,R,5,1,41,4123,0,2,329,232,T
2022-12-02T18:25:15Z,c8cu3c3m,serial-reaction-time,1,P,5,1,42,4123,0,4,323,324,H
2022-12-02T18:25:15Z,c8cu3c3m,serial-reaction-time,1,R,5,1,43,4123,0,2,297,242,T
2022-12-02T18:25:16Z,c8cu3c3m,serial-reaction-time,1,P,5,1,44,4123,0,1,317,421,H
2022-12-02T18:25:16Z,c8cu3c3m,serial-reaction-time,1,R,5,1,45,4123,0,3,308,213,H
2022-12-02T18:25:16Z,c8cu3c3m,serial-reaction-time,1,P,5,1,46,4123,0,2,326,132,H
2022-12-02T18:25:17Z,c8cu3c3m,serial-reaction-time,1,R,5,1,47,4123,0,3,330,323,T
2022-12-02T18:25:17Z,c8cu3c3m,serial-reaction-time,1,P,5,1,48,4123,0,3,324,233,H
2022-12-02T18:25:18Z,c8cu3c3m,serial-reaction-time,1,R,5,1,49,4123,0,4,414,334,H
2022-12-02T18:25:18Z,c8cu3c3m,serial-reaction-time,1,P,5,1,50,4123,0,4,325,344,H
2022-12-02T18:25:19Z,c8cu3c3m,serial-reaction-time,1,R,5,1,51,4123,0,2,312,442,L
2022-12-02T18:25:19Z,c8cu3c3m,serial-reaction-time,1,P,5,1,52,4123,0,1,312,421,H
2022-12-02T18:25:20Z,c8cu3c3m,serial-reaction-time,1,R,5,1,53,4123,0,1,349,211,L
2022-12-02T18:25:20Z,c8cu3c3m,serial-reaction-time,1,P,5,1,54,4123,0,2,463,112,H
2022-12-02T18:25:21Z,c8cu3c3m,serial-reaction-time,NA,R,5,1,55,4123,0,4,434,124,L
2022-12-02T18:25:21Z,c8cu3c3m,serial-reaction-time,1,R,5,0,55,4123,0,4,866,124,L
2022-12-02T18:25:22Z,c8cu3c3m,serial-reaction-time,1,P,5,1,56,4123,0,3,381,243,H
2022-12-02T18:25:22Z,c8cu3c3m,serial-reaction-time,1,R,5,1,57,4123,0,2,456,432,L
2022-12-02T18:25:23Z,c8cu3c3m,serial-reaction-time,1,P,5,1,58,4123,0,4,379,324,H
2022-12-02T18:25:23Z,c8cu3c3m,serial-reaction-time,1,R,5,1,59,4123,0,2,308,242,T
2022-12-02T18:25:24Z,c8cu3c3m,serial-reaction-time,1,P,5,1,60,4123,0,1,318,421,H
2022-12-02T18:25:24Z,c8cu3c3m,serial-reaction-time,1,R,5,1,61,4123,0,2,312,212,T
2022-12-02T18:25:25Z,c8cu3c3m,serial-reaction-time,1,P,5,1,62,4123,0,2,331,122,H
2022-12-02T18:25:25Z,c8cu3c3m,serial-reaction-time,1,R,5,1,63,4123,0,2,275,222,R
2022-12-02T18:25:26Z,c8cu3c3m,serial-reaction-time,1,P,5,1,64,4123,0,3,362,223,H
2022-12-02T18:25:26Z,c8cu3c3m,serial-reaction-time,1,R,5,1,65,4123,0,2,411,232,T
2022-12-02T18:25:27Z,c8cu3c3m,serial-reaction-time,1,P,5,1,66,4123,0,4,424,324,H
2022-12-02T18:25:27Z,c8cu3c3m,serial-reaction-time,1,R,5,1,67,4123,0,4,280,244,L
2022-12-02T18:25:28Z,c8cu3c3m,serial-reaction-time,1,P,5,1,68,4123,0,1,373,441,H
2022-12-02T18:25:28Z,c8cu3c3m,serial-reaction-time,1,R,5,1,69,4123,0,1,332,411,H
2022-12-02T18:25:29Z,c8cu3c3m,serial-reaction-time,1,P,5,1,70,4123,0,2,296,112,H
2022-12-02T18:25:29Z,c8cu3c3m,serial-reaction-time,1,R,5,1,71,4123,0,4,349,124,L
2022-12-02T18:25:30Z,c8cu3c3m,serial-reaction-time,1,P,5,1,72,4123,0,3,430,243,H
2022-12-02T18:25:30Z,c8cu3c3m,serial-reaction-time,1,R,5,1,73,4123,0,3,345,433,L
2022-12-02T18:25:31Z,c8cu3c3m,serial-reaction-time,1,P,5,1,74,4123,0,4,402,334,H
2022-12-02T18:25:31Z,c8cu3c3m,serial-reaction-time,1,R,5,1,75,4123,0,1,376,341,L
2022-12-02T18:25:32Z,c8cu3c3m,serial-reaction-time,1,P,5,1,76,4123,0,1,350,411,H
2022-12-02T18:25:32Z,c8cu3c3m,serial-reaction-time,1,R,5,1,77,4123,0,3,331,113,L
2022-12-02T18:25:33Z,c8cu3c3m,serial-reaction-time,1,P,5,1,78,4123,0,2,410,132,H
2022-12-02T18:25:33Z,c8cu3c3m,serial-reaction-time,1,R,5,1,79,4123,0,3,396,323,T
2022-12-02T18:25:34Z,c8cu3c3m,serial-reaction-time,1,P,5,1,80,4123,0,3,350,233,H
2022-12-02T18:25:39Z,c8cu3c3m,html-keyboard-response,NA,NA,NA,NA,NA,NA,NA,NA,NA,NA,NA
2022-12-02T18:25:42Z,c8cu3c3m,html-keyboard-response,NA,NA,NA,NA,NA,NA,NA,NA,NA,NA,NA
2022-12-02T18:25:43Z,c8cu3c3m,fullscreen,NA,NA,NA,NA,NA,NA,NA,NA,NA,NA,NA
2022-12-02T18:26:01Z,98n9czmc,fullscreen,NA,NA,NA,NA,NA,NA,NA,NA,NA,NA,NA
2022-12-02T18:26:04Z,98n9czmc,html-keyboard-response,NA,NA,NA,NA,NA,NA,NA,NA,NA,NA,NA
2022-12-02T18:26:05Z,98n9czmc,serial-reaction-time,1,R,1,1,1,2314,0,4,372.7000000476837,4,X
2022-12-02T18:26:05Z,98n9czmc,serial-reaction-time,1,P,1,1,2,2314,0,2,364.5,42,X
2022-12-02T18:26:06Z,98n9czmc,serial-reaction-time,NA,R,1,1,3,2314,0,4,337.5,424,T
2022-12-02T18:26:06Z,98n9czmc,serial-reaction-time,1,R,1,0,3,2314,0,4,616.1000001430511,424,T
2022-12-02T18:26:07Z,98n9czmc,serial-reaction-time,1,P,1,1,4,2314,0,3,328.40000009536743,243,H
2022-12-02T18:26:07Z,98n9czmc,serial-reaction-time,1,R,1,1,5,2314,0,1,409.59999990463257,431,L
2022-12-02T18:26:08Z,98n9czmc,serial-reaction-time,1,P,1,1,6,2314,0,1,304.7000000476837,311,H
2022-12-02T18:26:08Z,98n9czmc,serial-reaction-time,1,R,1,1,7,2314,0,1,329.59999990463257,111,R
2022-12-02T18:26:09Z,98n9czmc,serial-reaction-time,1,P,1,1,8,2314,0,4,346.60000014305115,114,H
2022-12-02T18:26:09Z,98n9czmc,serial-reaction-time,1,R,1,1,9,2314,0,2,372.5,142,L
2022-12-02T18:26:10Z,98n9czmc,serial-reaction-time,1,P,1,1,10,2314,0,2,280.2999999523163,422,H
2022-12-02T18:26:10Z,98n9czmc,serial-reaction-time,1,R,1,1,11,2314,0,3,332.39999985694885,223,H
2022-12-02T18:26:10Z,98n9czmc,serial-reaction-time,1,P,1,1,12,2314,0,3,276.5,233,H
2022-12-02T18:26:11Z,98n9czmc,serial-reaction-time,1,R,1,1,13,2314,0,1,342.89999985694885,331,H
2022-12-02T18:26:11Z,98n9czmc,serial-reaction-time,1,P,1,1,14,2314,0,1,245.79999995231628,311,H
2022-12-02T18:26:12Z,98n9czmc,serial-reaction-time,1,R,1,1,15,2314,0,3,310.7000000476837,113,L
2022-12-02T18:26:12Z,98n9czmc,serial-reaction-time,1,P,1,1,16,2314,0,4,353.5,134,H
2022-12-02T18:26:13Z,98n9czmc,serial-reaction-time,1,R,1,1,17,2314,0,4,259.69999980926514,344,L
2022-12-02T18:26:13Z,98n9czmc,serial-reaction-time,1,P,1,1,18,2314,0,2,342.7000000476837,442,H
2022-12-02T18:26:14Z,98n9czmc,serial-reaction-time,1,R,1,1,19,2314,0,1,312.89999985694885,421,L
2022-12-02T18:26:14Z,98n9czmc,serial-reaction-time,1,P,1,1,20,2314,0,3,339,213,H
2022-12-02T18:26:15Z,98n9czmc,serial-reaction-time,NA,R,1,1,21,2314,0,2,333.09999990463257,132,L
2022-12-02T18:26:15Z,98n9czmc,serial-reaction-time,1,R,1,0,21,2314,0,2,612.9000000953674,132,L
2022-12-02T18:26:15Z,98n9czmc,serial-reaction-time,1,P,1,1,22,2314,0,1,395.60000014305115,321,H
2022-12-02T18:26:16Z,98n9czmc,serial-reaction-time,1,R,1,1,23,2314,0,3,399.7000000476837,213,H
2022-12-02T18:26:16Z,98n9czmc,serial-reaction-time,1,P,1,1,24,2314,0,4,354.39999985694885,134,H
2022-12-02T18:26:17Z,98n9czmc,serial-reaction-time,1,R,1,1,25,2314,0,1,393.5,341,H
2022-12-02T18:26:17Z,98n9czmc,serial-reaction-time,1,P,1,1,26,2314,0,2,301.7999999523163,412,H
2022-12-02T18:26:18Z,98n9czmc,serial-reaction-time,1,R,1,1,27,2314,0,4,390.40000009536743,124,H
2022-12-02T18:26:18Z,98n9czmc,serial-reaction-time,1,P,1,1,28,2314,0,3,384.09999990463257,243,H
2022-12-02T18:26:19Z,98n9czmc,serial-reaction-time,1,R,1,1,29,2314,0,1,472.7000000476837,431,L
2022-12-02T18:26:20Z,98n9czmc,serial-reaction-time,1,P,1,1,30,2314,0,1,317.7000000476837,311,H
2022-12-02T18:26:20Z,98n9czmc,serial-reaction-time,1,R,1,1,31,2314,0,3,406.5,113,L
2022-12-02T18:26:21Z,98n9czmc,serial-reaction-time,1,P,1,1,32,2314,0,4,423,134,H
2022-12-02T18:26:21Z,98n9czmc,serial-reaction-time,1,R,1,1,33,2314,0,2,428.7999999523163,342,L
2022-12-02T18:26:22Z,98n9czmc,serial-reaction-time,1,P,1,1,34,2314,0,2,249.20000004768372,422,H
2022-12-02T18:26:22Z,98n9czmc,serial-reaction-time,1,R,1,1,35,2314,0,3,378,223,H
2022-12-02T18:26:23Z,98n9czmc,serial-reaction-time,1,P,1,1,36,2314,0,3,290.5,233,H
2022-12-02T18:26:23Z,98n9czmc,serial-reaction-time,1,R,1,1,37,2314,0,4,315.89999985694885,334,L
2022-12-02T18:26:24Z,98n9czmc,serial-reaction-time,1,P,1,1,38,2314,0,1,422.7999999523163,341,H
2022-12-02T18:26:24Z,98n9czmc,serial-reaction-time,1,R,1,1,39,2314,0,1,280.59999990463257,411,L
2022-12-02T18:26:25Z,98n9czmc,serial-reaction-time,1,P,1,1,40,2314,0,4,394,114,H
2022-12-02T18:26:25Z,98n9czmc,serial-reaction-time,1,R,1,1,41,2314,0,2,383,142,L
2022-12-02T18:26:25Z,98n9czmc,serial-reaction-time,1,P,1,1,42,2314,0,2,266.10000014305115,422,H
2022-12-02T18:26:26Z,98n9czmc,serial-reaction-time,1,R,1,1,43,2314,0,2,330.89999985694885,222,R
2022-12-02T18:26:26Z,98n9czmc,serial-reaction-time,1,P,1,1,44,2314,0,3,349.7000000476837,223,H
2022-12-02T18:26:27Z,98n9czmc,serial-reaction-time,1,R,1,1,45,2314,0,2,444.59999990463257,232,T
2022-12-02T18:26:27Z,98n9czmc,serial-reaction-time,1,P,1,1,46,2314,0,1,370.59999990463257,321,H
2022-12-02T18:26:28Z,98n9czmc,serial-reaction-time,1,R,1,1,47,2314,0,4,416.39999985694885,214,L
2022-12-02T18:26:29Z,98n9czmc,serial-reaction-time,1,P,1,1,48,2314,0,4,346.40000009536743,144,H
2022-12-02T18:26:29Z,98n9czmc,serial-reaction-time,1,R,1,1,49,2314,0,2,358.69999980926514,442,H
2022-12-02T18:26:29Z,98n9czmc,serial-reaction-time,1,P,1,1,50,2314,0,2,280.90000009536743,422,H
2022-12-02T18:26:30Z,98n9czmc,serial-reaction-time,1,R,1,1,51,2314,0,3,342.7000000476837,223,H
2022-12-02T18:26:30Z,98n9czmc,serial-reaction-time,1,P,1,1,52,2314,0,3,256.90000009536743,233,H
2022-12-02T18:26:31Z,98n9czmc,serial-reaction-time,1,R,1,1,53,2314,0,3,317.09999990463257,333,R
2022-12-02T18:26:31Z,98n9czmc,serial-reaction-time,1,P,1,1,54,2314,0,1,331.90000009536743,331,H
2022-12-02T18:26:32Z,98n9czmc,serial-reaction-time,1,R,1,1,55,2314,0,4,367.2999999523163,314,L
2022-12-02T18:26:32Z,98n9czmc,serial-reaction-time,1,P,1,1,56,2314,0,4,253.09999990463257,144,H
2022-12-02T18:26:33Z,98n9czmc,serial-reaction-time,1,R,1,1,57,2314,0,4,328,444,R
2022-12-02T18:26:33Z,98n9czmc,serial-reaction-time,1,P,1,1,58,2314,0,2,331.40000009536743,442,H
2022-12-02T18:26:33Z,98n9czmc,serial-reaction-time,NA,R,1,1,59,2314,0,1,252.59999990463257,421,L
2022-12-02T18:26:34Z,98n9czmc,serial-reaction-time,1,R,1,0,59,2314,0,1,490.59999990463257,421,L
2022-12-02T18:26:34Z,98n9czmc,serial-reaction-time,1,P,1,1,60,2314,0,3,351.89999985694885,213,H
2022-12-02T18:26:35Z,98n9czmc,serial-reaction-time,1,R,1,1,61,2314,0,2,461.2999999523163,132,L
2022-12-02T18:26:35Z,98n9czmc,serial-reaction-time,1,P,1,1,62,2314,0,1,353.40000009536743,321,H
2022-12-02T18:26:36Z,98n9czmc,serial-reaction-time,1,R,1,1,63,2314,0,1,307.2999999523163,211,L
2022-12-02T18:26:36Z,98n9czmc,serial-reaction-time,1,P,1,1,64,2314,0,4,426.69999980926514,114,H
2022-12-02T18:26:37Z,98n9czmc,serial-reaction-time,1,R,1,1,65,2314,0,3,401.10000014305115,143,L
2022-12-02T18:26:37Z,98n9czmc,serial-reaction-time,1,P,1,1,66,2314,0,2,377.2000000476837,432,H
2022-12-02T18:26:38Z,98n9czmc,serial-reaction-time,1,R,1,1,67,2314,0,3,392.2000000476837,323,T
2022-12-02T18:26:38Z,98n9czmc,serial-reaction-time,1,P,1,1,68,2314,0,3,295.90000009536743,233,H
2022-12-02T18:26:39Z,98n9czmc,serial-reaction-time,1,R,1,1,69,2314,0,4,297.59999990463257,334,L
2022-12-02T18:26:39Z,98n9czmc,serial-reaction-time,1,P,1,1,70,2314,0,1,399.7999999523163,341,H
2022-12-02T18:26:40Z,98n9czmc,serial-reaction-time,1,R,1,1,71,2314,0,1,288.5,411,L
2022-12-02T18:26:40Z,98n9czmc,serial-reaction-time,1,P,1,1,72,2314,0,4,293.89999985694885,114,H
2022-12-02T18:26:41Z,98n9czmc,serial-reaction-time,1,R,1,1,73,2314,0,1,379.5,141,T
2022-12-02T18:26:41Z,98n9czmc,serial-reaction-time,1,P,1,1,74,2314,0,2,433.2999999523163,412,H
2022-12-02T18:26:42Z,98n9czmc,serial-reaction-time,1,R,1,1,75,2314,0,2,291.2000000476837,122,L
2022-12-02T18:26:42Z,98n9czmc,serial-reaction-time,1,P,1,1,76,2314,0,3,330,223,H
2022-12-02T18:26:43Z,98n9czmc,serial-reaction-time,1,R,1,1,77,2314,0,2,452.2999999523163,232,T
2022-12-02T18:26:43Z,98n9czmc,serial-reaction-time,1,P,1,1,78,2314,0,1,358,321,H
2022-12-02T18:26:43Z,98n9czmc,serial-reaction-time,1,R,1,1,79,2314,0,1,278.7000000476837,211,L
2022-12-02T18:26:44Z,98n9czmc,serial-reaction-time,1,P,1,1,80,2314,0,4,346.59999990463257,114,H
2022-12-02T18:26:49Z,98n9czmc,html-keyboard-response,NA,NA,NA,NA,NA,NA,NA,NA,NA,NA,NA
2022-12-02T18:26:50Z,98n9czmc,html-keyboard-response,NA,NA,NA,NA,NA,NA,NA,NA,NA,NA,NA
2022-12-02T18:26:51Z,98n9czmc,serial-reaction-time,1,R,2,1,1,2314,0,2,485.5,2,X
2022-12-02T18:26:52Z,98n9czmc,serial-reaction-time,1,P,2,1,2,2314,0,2,193.20000004768372,22,X
2022-12-02T18:26:52Z,98n9czmc,serial-reaction-time,NA,R,2,1,3,2314,0,1,325.89999985694885,221,L
2022-12-02T18:26:52Z,98n9czmc,serial-reaction-time,1,R,2,0,3,2314,0,1,570.1999998092651,221,L
2022-12-02T18:26:53Z,98n9czmc,serial-reaction-time,NA,P,2,1,4,2314,0,3,346.2000000476837,213,H
2022-12-02T18:26:53Z,98n9czmc,serial-reaction-time,1,P,2,0,4,2314,0,3,628.2999999523163,213,H
2022-12-02T18:26:54Z,98n9czmc,serial-reaction-time,1,R,2,1,5,2314,0,3,300.5,133,L
2022-12-02T18:26:54Z,98n9czmc,serial-reaction-time,NA,P,2,1,6,2314,0,1,420,331,H
2022-12-02T18:26:54Z,98n9czmc,serial-reaction-time,1,P,2,0,6,2314,0,1,724.5,331,H
2022-12-02T18:26:55Z,98n9czmc,serial-reaction-time,1,R,2,1,7,2314,0,2,360.09999990463257,312,L
2022-12-02T18:26:55Z,98n9czmc,serial-reaction-time,1,P,2,1,8,2314,0,4,335.2000000476837,124,H
2022-12-02T18:26:56Z,98n9czmc,serial-reaction-time,1,R,2,1,9,2314,0,4,293.7999999523163,244,L
2022-12-02T18:26:56Z,98n9czmc,serial-reaction-time,1,P,2,1,10,2314,0,2,368.80000019073486,442,H
2022-12-02T18:26:57Z,98n9czmc,serial-reaction-time,1,R,2,1,11,2314,0,2,217.29999995231628,422,H
2022-12-02T18:26:57Z,98n9czmc,serial-reaction-time,1,P,2,1,12,2314,0,3,341.2999999523163,223,H
2022-12-02T18:26:58Z,98n9czmc,serial-reaction-time,1,R,2,1,13,2314,0,1,369.2000000476837,231,L
2022-12-02T18:26:58Z,98n9czmc,serial-reaction-time,1,P,2,1,14,2314,0,1,239.20000004768372,311,H
2022-12-02T18:26:59Z,98n9czmc,serial-reaction-time,1,R,2,1,15,2314,0,2,349.90000009536743,112,L
2022-12-02T18:26:59Z,98n9czmc,serial-reaction-time,1,P,2,1,16,2314,0,4,345.5,124,H
2022-12-02T18:27:00Z,98n9czmc,serial-reaction-time,1,R,2,1,17,2314,0,2,373.90000009536743,242,T
2022-12-02T18:27:00Z,98n9czmc,serial-reaction-time,1,P,2,1,18,2314,0,2,205.1999998092651,422,H
2022-12-02T18:27:00Z,98n9czmc,serial-reaction-time,1,R,2,1,19,2314,0,2,362.19999980926514,222,R
2022-12-02T18:27:01Z,98n9czmc,serial-reaction-time,1,P,2,1,20,2314,0,3,376.30000019073486,223,H
2022-12-02T18:27:01Z,98n9czmc,serial-reaction-time,1,R,2,1,21,2314,0,1,338,231,L
2022-12-02T18:27:02Z,98n9czmc,serial-reaction-time,1,P,2,1,22,2314,0,1,233.60000014305115,311,H
2022-12-02T18:27:02Z,98n9czmc,serial-reaction-time,1,R,2,1,23,2314,0,1,333,111,R
2022-12-02T18:27:03Z,98n9czmc,serial-reaction-time,1,P,2,1,24,2314,0,4,437.7999999523163,114,H
2022-12-02T18:27:03Z,98n9czmc,serial-reaction-time,NA,R,2,1,25,2314,0,1,521,141,T
2022-12-02T18:27:04Z,98n9czmc,serial-reaction-time,1,R,2,0,25,2314,0,1,761,141,T
2022-12-02T18:27:04Z,98n9czmc,serial-reaction-time,1,P,2,1,26,2314,0,2,322.40000009536743,412,H
2022-12-02T18:27:05Z,98n9czmc,serial-reaction-time,1,R,2,1,27,2314,0,2,236.79999995231628,122,L
2022-12-02T18:27:05Z,98n9czmc,serial-reaction-time,1,P,2,1,28,2314,0,3,400.2000000476837,223,H
2022-12-02T18:27:06Z,98n9czmc,serial-reaction-time,1,R,2,1,29,2314,0,4,351.2000000476837,234,L
2022-12-02T18:27:06Z,98n9czmc,serial-reaction-time,1,P,2,1,30,2314,0,1,492.7999999523163,341,H
2022-12-02T18:27:07Z,98n9czmc,serial-reaction-time,1,R,2,1,31,2314,0,3,420,413,L
2022-12-02T18:27:07Z,98n9czmc,serial-reaction-time,1,P,2,1,32,2314,0,4,338.2000000476837,134,H
2022-12-02T18:27:08Z,98n9czmc,serial-reaction-time,1,R,2,1,33,2314,0,2,420.39999985694885,342,L
2022-12-02T18:27:08Z,98n9czmc,serial-reaction-time,1,P,2,1,34,2314,0,2,263,422,H
2022-12-02T18:27:09Z,98n9czmc,serial-reaction-time,1,R,2,1,35,2314,0,3,342.10000014305115,223,H
2022-12-02T18:27:09Z,98n9czmc,serial-reaction-time,1,P,2,1,36,2314,0,3,325.5,233,H
2022-12-02T18:27:10Z,98n9czmc,serial-reaction-time,1,R,2,1,37,2314,0,2,341.09999990463257,332,L
2022-12-02T18:27:10Z,98n9czmc,serial-reaction-time,1,P,2,1,38,2314,0,1,340.5,321,H
2022-12-02T18:27:11Z,98n9czmc,serial-reaction-time,1,R,2,1,39,2314,0,2,450.2999999523163,212,T
2022-12-02T18:27:11Z,98n9czmc,serial-reaction-time,1,P,2,1,40,2314,0,4,492.89999985694885,124,H
2022-12-02T18:27:12Z,98n9czmc,serial-reaction-time,1,R,2,1,41,2314,0,2,373.2000000476837,242,T
2022-12-02T18:27:12Z,98n9czmc,serial-reaction-time,1,P,2,1,42,2314,0,2,270,422,H
2022-12-02T18:27:13Z,98n9czmc,serial-reaction-time,1,R,2,1,43,2314,0,1,322.10000014305115,221,L
2022-12-02T18:27:13Z,98n9czmc,serial-reaction-time,1,P,2,1,44,2314,0,3,469.60000014305115,213,H
2022-12-02T18:27:14Z,98n9czmc,serial-reaction-time,1,R,2,1,45,2314,0,3,270.80000019073486,133,L
2022-12-02T18:27:14Z,98n9czmc,serial-reaction-time,1,P,2,1,46,2314,0,1,391.2999999523163,331,H
2022-12-02T18:27:15Z,98n9czmc,serial-reaction-time,1,R,2,1,47,2314,0,3,394.09999990463257,313,T
2022-12-02T18:27:15Z,98n9czmc,serial-reaction-time,1,P,2,1,48,2314,0,4,358.39999985694885,134,H
2022-12-02T18:27:16Z,98n9czmc,serial-reaction-time,1,R,2,1,49,2314,0,4,293.5,344,L
2022-12-02T18:27:16Z,98n9czmc,serial-reaction-time,1,P,2,1,50,2314,0,2,416,442,H
2022-12-02T18:27:17Z,98n9czmc,serial-reaction-time,NA,R,2,1,51,2314,0,3,374.2999999523163,423,L
2022-12-02T18:27:17Z,98n9czmc,serial-reaction-time,1,R,2,0,51,2314,0,3,430.59999990463257,423,L
2022-12-02T18:27:17Z,98n9czmc,serial-reaction-time,1,P,2,1,52,2314,0,3,318.2999999523163,233,H
2022-12-02T18:27:18Z,98n9czmc,serial-reaction-time,1,R,2,1,53,2314,0,1,427.09999990463257,331,H
2022-12-02T18:27:18Z,98n9czmc,serial-reaction-time,1,P,2,1,54,2314,0,1,298.40000009536743,311,H
2022-12-02T18:27:19Z,98n9czmc,serial-reaction-time,1,R,2,1,55,2314,0,2,317.7000000476837,112,L
2022-12-02T18:27:19Z,98n9czmc,serial-reaction-time,1,P,2,1,56,2314,0,4,343,124,H
2022-12-02T18:27:20Z,98n9czmc,serial-reaction-time,1,R,2,1,57,2314,0,4,313.09999990463257,244,L
2022-12-02T18:27:20Z,98n9czmc,serial-reaction-time,1,P,2,1,58,2314,0,2,377.59999990463257,442,H
2022-12-02T18:27:21Z,98n9czmc,serial-reaction-time,1,R,2,1,59,2314,0,4,357.39999985694885,424,T
2022-12-02T18:27:21Z,98n9czmc,serial-reaction-time,1,P,2,1,60,2314,0,3,388.19999980926514,243,H
2022-12-02T18:27:22Z,98n9czmc,serial-reaction-time,1,R,2,1,61,2314,0,4,368.2999999523163,434,T
2022-12-02T18:27:22Z,98n9czmc,serial-reaction-time,1,P,2,1,62,2314,0,1,352.5,341,H
2022-12-02T18:27:23Z,98n9czmc,serial-reaction-time,1,R,2,1,63,2314,0,3,385.2999999523163,413,L
2022-12-02T18:27:23Z,98n9czmc,serial-reaction-time,1,P,2,1,64,2314,0,4,297.2999999523163,134,H
2022-12-02T18:27:24Z,98n9czmc,serial-reaction-time,1,R,2,1,65,2314,0,1,406.2000000476837,341,H
2022-12-02T18:27:24Z,98n9czmc,serial-reaction-time,1,P,2,1,66,2314,0,2,384.39999985694885,412,H
2022-12-02T18:27:25Z,98n9czmc,serial-reaction-time,1,R,2,1,67,2314,0,1,401.09999990463257,121,T
2022-12-02T18:27:25Z,98n9czmc,serial-reaction-time,1,P,2,1,68,2314,0,3,446,213,H
2022-12-02T18:27:26Z,98n9czmc,serial-reaction-time,1,R,2,1,69,2314,0,3,302.40000009536743,133,L
2022-12-02T18:27:26Z,98n9czmc,serial-reaction-time,1,P,2,1,70,2314,0,1,587.2999999523163,331,H
2022-12-02T18:27:27Z,98n9czmc,serial-reaction-time,1,R,2,1,71,2314,0,1,291.40000009536743,311,H
2022-12-02T18:27:27Z,98n9czmc,serial-reaction-time,1,P,2,1,72,2314,0,4,366.60000014305115,114,H
2022-12-02T18:27:28Z,98n9czmc,serial-reaction-time,1,R,2,1,73,2314,0,1,334,141,T
2022-12-02T18:27:28Z,98n9czmc,serial-reaction-time,1,P,2,1,74,2314,0,2,433,412,H
2022-12-02T18:27:29Z,98n9czmc,serial-reaction-time,1,R,2,1,75,2314,0,2,335.10000014305115,122,L
2022-12-02T18:27:29Z,98n9czmc,serial-reaction-time,1,P,2,1,76,2314,0,3,420.5,223,H
2022-12-02T18:27:30Z,98n9czmc,serial-reaction-time,1,R,2,1,77,2314,0,2,346.09999990463257,232,T
2022-12-02T18:27:30Z,98n9czmc,serial-reaction-time,1,P,2,1,78,2314,0,1,419.7999999523163,321,H
2022-12-02T18:27:31Z,98n9czmc,serial-reaction-time,1,R,2,1,79,2314,0,1,228.90000009536743,211,L
2022-12-02T18:27:31Z,98n9czmc,serial-reaction-time,1,P,2,1,80,2314,0,4,362.2999999523163,114,H
2022-12-02T18:27:36Z,98n9czmc,html-keyboard-response,NA,NA,NA,NA,NA,NA,NA,NA,NA,NA,NA
2022-12-02T18:27:37Z,98n9czmc,html-keyboard-response,NA,NA,NA,NA,NA,NA,NA,NA,NA,NA,NA
2022-12-02T18:27:38Z,98n9czmc,serial-reaction-time,1,R,3,1,1,2314,0,4,361,4,X
2022-12-02T18:27:39Z,98n9czmc,serial-reaction-time,1,P,3,1,2,2314,0,2,360.2999999523163,42,X
2022-12-02T18:27:39Z,98n9czmc,serial-reaction-time,1,R,3,1,3,2314,0,2,212.79999995231628,422,H
2022-12-02T18:27:40Z,98n9czmc,serial-reaction-time,1,P,3,1,4,2314,0,3,358.10000014305115,223,H
2022-12-02T18:27:40Z,98n9czmc,serial-reaction-time,1,R,3,1,5,2314,0,4,315.7999999523163,234,L
2022-12-02T18:27:41Z,98n9czmc,serial-reaction-time,NA,P,3,1,6,2314,0,1,401.2000000476837,341,H
2022-12-02T18:27:41Z,98n9czmc,serial-reaction-time,1,P,3,0,6,2314,0,1,703,341,H
2022-12-02T18:27:41Z,98n9czmc,serial-reaction-time,NA,R,3,1,7,2314,0,4,347.2999999523163,414,T
2022-12-02T18:27:42Z,98n9czmc,serial-reaction-time,1,R,3,0,7,2314,0,4,570.7999999523163,414,T
2022-12-02T18:27:42Z,98n9czmc,serial-reaction-time,1,P,3,1,8,2314,0,4,330.30000019073486,144,H
2022-12-02T18:27:43Z,98n9czmc,serial-reaction-time,1,R,3,1,9,2314,0,2,383.39999985694885,442,H
2022-12-02T18:27:43Z,98n9czmc,serial-reaction-time,1,P,3,1,10,2314,0,2,243.39999985694885,422,H
2022-12-02T18:27:44Z,98n9czmc,serial-reaction-time,1,R,3,1,11,2314,0,1,355,221,L
2022-12-02T18:27:44Z,98n9czmc,serial-reaction-time,1,P,3,1,12,2314,0,3,411.59999990463257,213,H
2022-12-02T18:27:45Z,98n9czmc,serial-reaction-time,1,R,3,1,13,2314,0,1,418.10000014305115,131,T
2022-12-02T18:27:45Z,98n9czmc,serial-reaction-time,NA,P,3,1,14,2314,0,1,322.60000014305115,311,H
2022-12-02T18:27:45Z,98n9czmc,serial-reaction-time,1,P,3,0,14,2314,0,1,397.90000009536743,311,H
2022-12-02T18:27:46Z,98n9czmc,serial-reaction-time,1,R,3,1,15,2314,0,2,468.10000014305115,112,L
2022-12-02T18:27:46Z,98n9czmc,serial-reaction-time,1,P,3,1,16,2314,0,4,318.7000000476837,124,H
2022-12-02T18:27:47Z,98n9czmc,serial-reaction-time,1,R,3,1,17,2314,0,4,281.7999999523163,244,L
2022-12-02T18:27:47Z,98n9czmc,serial-reaction-time,1,P,3,1,18,2314,0,2,379.7000000476837,442,H
2022-12-02T18:27:48Z,98n9czmc,serial-reaction-time,1,R,3,1,19,2314,0,2,254,422,H
2022-12-02T18:27:48Z,98n9czmc,serial-reaction-time,1,P,3,1,20,2314,0,3,388,223,H
2022-12-02T18:27:49Z,98n9czmc,serial-reaction-time,1,R,3,1,21,2314,0,2,370.69999980926514,232,T
2022-12-02T18:27:49Z,98n9czmc,serial-reaction-time,1,P,3,1,22,2314,0,1,379.80000019073486,321,H
2022-12-02T18:27:50Z,98n9czmc,serial-reaction-time,1,R,3,1,23,2314,0,1,278.40000009536743,211,L
2022-12-02T18:27:50Z,98n9czmc,serial-reaction-time,1,P,3,1,24,2314,0,4,406.10000014305115,114,H
2022-12-02T18:27:50Z,98n9czmc,serial-reaction-time,1,R,3,1,25,2314,0,4,261.5,144,H
2022-12-02T18:27:51Z,98n9czmc,serial-reaction-time,NA,P,3,1,26,2314,0,2,306.7999999523163,442,H
2022-12-02T18:27:51Z,98n9czmc,serial-reaction-time,1,P,3,0,26,2314,0,2,439.7999999523163,442,H
2022-12-02T18:27:52Z,98n9czmc,serial-reaction-time,1,R,3,1,27,2314,0,3,416.89999985694885,423,L
2022-12-02T18:27:52Z,98n9czmc,serial-reaction-time,1,P,3,1,28,2314,0,3,277.5,233,H
2022-12-02T18:27:52Z,98n9czmc,serial-reaction-time,1,R,3,1,29,2314,0,1,355.2000000476837,331,H
2022-12-02T18:27:53Z,98n9czmc,serial-reaction-time,1,P,3,1,30,2314,0,1,263.7000000476837,311,H
2022-12-02T18:27:53Z,98n9czmc,serial-reaction-time,1,R,3,1,31,2314,0,2,365.40000009536743,112,L
2022-12-02T18:27:54Z,98n9czmc,serial-reaction-time,NA,P,3,1,32,2314,0,4,145.5,124,H
2022-12-02T18:27:54Z,98n9czmc,serial-reaction-time,1,P,3,0,32,2314,0,4,405.19999980926514,124,H
2022-12-02T18:27:54Z,98n9czmc,serial-reaction-time,1,R,3,1,33,2314,0,3,417.2000000476837,243,H
2022-12-02T18:27:55Z,98n9czmc,serial-reaction-time,1,P,3,1,34,2314,0,2,397.60000014305115,432,H
2022-12-02T18:27:55Z,98n9czmc,serial-reaction-time,1,R,3,1,35,2314,0,2,249.70000004768372,322,L
2022-12-02T18:27:56Z,98n9czmc,serial-reaction-time,1,P,3,1,36,2314,0,3,329.59999990463257,223,H
2022-12-02T18:27:56Z,98n9czmc,serial-reaction-time,NA,R,3,1,37,2314,0,2,348.5,232,T
2022-12-02T18:27:57Z,98n9czmc,serial-reaction-time,1,R,3,0,37,2314,0,2,649.5999999046326,232,T
2022-12-02T18:27:57Z,98n9czmc,serial-reaction-time,1,P,3,1,38,2314,0,1,345.09999990463257,321,H
2022-12-02T18:27:58Z,98n9czmc,serial-reaction-time,1,R,3,1,39,2314,0,2,492.7000000476837,212,T
2022-12-02T18:27:58Z,98n9czmc,serial-reaction-time,1,P,3,1,40,2314,0,4,374,124,H
2022-12-02T18:27:59Z,98n9czmc,serial-reaction-time,1,R,3,1,41,2314,0,1,426.09999990463257,241,L
2022-12-02T18:27:59Z,98n9czmc,serial-reaction-time,1,P,3,1,42,2314,0,2,339.39999985694885,412,H
2022-12-02T18:28:00Z,98n9czmc,serial-reaction-time,1,R,3,1,43,2314,0,2,320.2999999523163,122,L
2022-12-02T18:28:00Z,98n9czmc,serial-reaction-time,1,P,3,1,44,2314,0,3,400.40000009536743,223,H
2022-12-02T18:28:01Z,98n9czmc,serial-reaction-time,1,R,3,1,45,2314,0,3,301.39999985694885,233,H
2022-12-02T18:28:01Z,98n9czmc,serial-reaction-time,1,P,3,1,46,2314,0,1,371.90000009536743,331,H
2022-12-02T18:28:02Z,98n9czmc,serial-reaction-time,1,R,3,1,47,2314,0,2,368.7999999523163,312,L
2022-12-02T18:28:02Z,98n9czmc,serial-reaction-time,1,P,3,1,48,2314,0,4,393.2999999523163,124,H
2022-12-02T18:28:03Z,98n9czmc,serial-reaction-time,1,R,3,1,49,2314,0,1,378.7000000476837,241,L
2022-12-02T18:28:03Z,98n9czmc,serial-reaction-time,1,P,3,1,50,2314,0,2,372.7000000476837,412,H
2022-12-02T18:28:04Z,98n9czmc,serial-reaction-time,1,R,3,1,51,2314,0,2,575.0999999046326,122,L
2022-12-02T18:28:05Z,98n9czmc,serial-reaction-time,1,P,3,1,52,2314,0,3,385.2000000476837,223,H
2022-12-02T18:28:05Z,98n9czmc,serial-reaction-time,1,R,3,1,53,2314,0,4,364.09999990463257,234,L
2022-12-02T18:28:05Z,98n9czmc,serial-reaction-time,1,P,3,1,54,2314,0,1,359.60000014305115,341,H
2022-12-02T18:28:06Z,98n9czmc,serial-reaction-time,1,R,3,1,55,2314,0,3,447.60000014305115,413,L
2022-12-02T18:28:07Z,98n9czmc,serial-reaction-time,1,P,3,1,56,2314,0,4,393.89999985694885,134,H
2022-12-02T18:28:07Z,98n9czmc,serial-reaction-time,1,R,3,1,57,2314,0,1,369.2999999523163,341,H
2022-12-02T18:28:08Z,98n9czmc,serial-reaction-time,1,P,3,1,58,2314,0,2,408.5,412,H
2022-12-02T18:28:08Z,98n9czmc,serial-reaction-time,1,R,3,1,59,2314,0,3,353.40000009536743,123,L
2022-12-02T18:28:09Z,98n9czmc,serial-reaction-time,NA,P,3,1,60,2314,0,3,366.90000009536743,233,H
2022-12-02T18:28:09Z,98n9czmc,serial-reaction-time,1,P,3,0,60,2314,0,3,593.0999999046326,233,H
2022-12-02T18:28:09Z,98n9czmc,serial-reaction-time,1,R,3,1,61,2314,0,3,393.60000014305115,333,R
2022-12-02T18:28:10Z,98n9czmc,serial-reaction-time,1,P,3,1,62,2314,0,1,287.39999985694885,331,H
2022-12-02T18:28:10Z,98n9czmc,serial-reaction-time,1,R,3,1,63,2314,0,4,429.2999999523163,314,L
2022-12-02T18:28:11Z,98n9czmc,serial-reaction-time,1,P,3,1,64,2314,0,4,301,144,H
2022-12-02T18:28:11Z,98n9czmc,serial-reaction-time,1,R,3,1,65,2314,0,1,346.2000000476837,441,L
2022-12-02T18:28:12Z,98n9czmc,serial-reaction-time,1,P,3,1,66,2314,0,2,362.2999999523163,412,H
2022-12-02T18:28:12Z,98n9czmc,serial-reaction-time,1,R,3,1,67,2314,0,3,397.40000009536743,123,L
2022-12-02T18:28:13Z,98n9czmc,serial-reaction-time,1,P,3,1,68,2314,0,3,604.7999999523163,233,H
2022-12-02T18:28:13Z,98n9czmc,serial-reaction-time,1,R,3,1,69,2314,0,2,332.59999990463257,332,L
2022-12-02T18:28:14Z,98n9czmc,serial-reaction-time,1,P,3,1,70,2314,0,1,338.2999999523163,321,H
2022-12-02T18:28:14Z,98n9czmc,serial-reaction-time,1,R,3,1,71,2314,0,3,373.2000000476837,213,H
2022-12-02T18:28:15Z,98n9czmc,serial-reaction-time,1,P,3,1,72,2314,0,4,345,134,H
2022-12-02T18:28:15Z,98n9czmc,serial-reaction-time,1,R,3,1,73,2314,0,4,352.90000009536743,344,L
2022-12-02T18:28:16Z,98n9czmc,serial-reaction-time,1,P,3,1,74,2314,0,2,520.1000001430511,442,H
2022-12-02T18:28:17Z,98n9czmc,serial-reaction-time,1,R,3,1,75,2314,0,2,292.40000009536743,422,H
2022-12-02T18:28:17Z,98n9czmc,serial-reaction-time,1,P,3,1,76,2314,0,3,323.90000009536743,223,H
2022-12-02T18:28:17Z,98n9czmc,serial-reaction-time,1,R,3,1,77,2314,0,4,369.2000000476837,234,L
2022-12-02T18:28:18Z,98n9czmc,serial-reaction-time,1,P,3,1,78,2314,0,1,443.7999999523163,341,H
2022-12-02T18:28:19Z,98n9czmc,serial-reaction-time,1,R,3,1,79,2314,0,2,388.7999999523163,412,H
2022-12-02T18:28:19Z,98n9czmc,serial-reaction-time,1,P,3,1,80,2314,0,4,368.7000000476837,124,H
2022-12-02T18:28:24Z,98n9czmc,html-keyboard-response,NA,NA,NA,NA,NA,NA,NA,NA,NA,NA,NA
2022-12-02T18:28:25Z,98n9czmc,html-keyboard-response,NA,NA,NA,NA,NA,NA,NA,NA,NA,NA,NA
2022-12-02T18:28:26Z,98n9czmc,serial-reaction-time,1,R,4,1,1,2314,0,2,431.7999999523163,2,X
2022-12-02T18:28:27Z,98n9czmc,serial-reaction-time,1,P,4,1,2,2314,0,2,247.79999995231628,22,X
2022-12-02T18:28:27Z,98n9czmc,serial-reaction-time,1,R,4,1,3,2314,0,1,336.5,221,L
2022-12-02T18:28:27Z,98n9czmc,serial-reaction-time,1,P,4,1,4,2314,0,3,323,213,H
2022-12-02T18:28:28Z,98n9czmc,serial-reaction-time,1,R,4,1,5,2314,0,1,345.90000009536743,131,T
2022-12-02T18:28:28Z,98n9czmc,serial-reaction-time,1,P,4,1,6,2314,0,1,318.09999990463257,311,H
2022-12-02T18:28:29Z,98n9czmc,serial-reaction-time,1,R,4,1,7,2314,0,2,386.5,112,L
2022-12-02T18:28:29Z,98n9czmc,serial-reaction-time,1,P,4,1,8,2314,0,4,342,124,H
2022-12-02T18:28:30Z,98n9czmc,serial-reaction-time,1,R,4,1,9,2314,0,2,340.7999999523163,242,T
2022-12-02T18:28:30Z,98n9czmc,serial-reaction-time,1,P,4,1,10,2314,0,2,274.7999999523163,422,H
2022-12-02T18:28:31Z,98n9czmc,serial-reaction-time,1,R,4,1,11,2314,0,3,326.5,223,H
2022-12-02T18:28:31Z,98n9czmc,serial-reaction-time,1,P,4,1,12,2314,0,3,241.79999995231628,233,H
2022-12-02T18:28:32Z,98n9czmc,serial-reaction-time,1,R,4,1,13,2314,0,2,328.89999985694885,332,L
2022-12-02T18:28:32Z,98n9czmc,serial-reaction-time,1,P,4,1,14,2314,0,1,329.89999985694885,321,H
2022-12-02T18:28:32Z,98n9czmc,serial-reaction-time,1,R,4,1,15,2314,0,1,242.10000014305115,211,L
2022-12-02T18:28:33Z,98n9czmc,serial-reaction-time,1,P,4,1,16,2314,0,4,353.59999990463257,114,H
2022-12-02T18:28:33Z,98n9czmc,serial-reaction-time,1,R,4,1,17,2314,0,3,393.7000000476837,143,L
2022-12-02T18:28:34Z,98n9czmc,serial-reaction-time,1,P,4,1,18,2314,0,2,363.90000009536743,432,H
2022-12-02T18:28:35Z,98n9czmc,serial-reaction-time,1,R,4,1,19,2314,0,1,426.90000009536743,321,H
2022-12-02T18:28:35Z,98n9czmc,serial-reaction-time,1,P,4,1,20,2314,0,3,379.69999980926514,213,H
2022-12-02T18:28:36Z,98n9czmc,serial-reaction-time,1,R,4,1,21,2314,0,1,383.5,131,T
2022-12-02T18:28:36Z,98n9czmc,serial-reaction-time,1,P,4,1,22,2314,0,1,309.7999999523163,311,H
2022-12-02T18:28:37Z,98n9czmc,serial-reaction-time,1,R,4,1,23,2314,0,2,391.40000009536743,112,L
2022-12-02T18:28:37Z,98n9czmc,serial-reaction-time,1,P,4,1,24,2314,0,4,366.59999990463257,124,H
2022-12-02T18:28:37Z,98n9czmc,serial-reaction-time,1,R,4,1,25,2314,0,4,272.39999985694885,244,L
2022-12-02T18:28:38Z,98n9czmc,serial-reaction-time,1,P,4,1,26,2314,0,2,307.5,442,H
2022-12-02T18:28:38Z,98n9czmc,serial-reaction-time,1,R,4,1,27,2314,0,2,263.40000009536743,422,H
2022-12-02T18:28:39Z,98n9czmc,serial-reaction-time,1,P,4,1,28,2314,0,3,308,223,H
2022-12-02T18:28:39Z,98n9czmc,serial-reaction-time,1,R,4,1,29,2314,0,3,282.59999990463257,233,H
2022-12-02T18:28:40Z,98n9czmc,serial-reaction-time,1,P,4,1,30,2314,0,1,404,331,H
2022-12-02T18:28:40Z,98n9czmc,serial-reaction-time,1,R,4,1,31,2314,0,1,300.2000000476837,311,H
2022-12-02T18:28:41Z,98n9czmc,serial-reaction-time,1,P,4,1,32,2314,0,4,327.7000000476837,114,H
2022-12-02T18:28:41Z,98n9czmc,serial-reaction-time,1,R,4,1,33,2314,0,4,252.5,144,H
2022-12-02T18:28:41Z,98n9czmc,serial-reaction-time,1,P,4,1,34,2314,0,2,319.5,442,H
2022-12-02T18:28:42Z,98n9czmc,serial-reaction-time,NA,R,4,1,35,2314,0,3,213.40000009536743,423,L
2022-12-02T18:28:42Z,98n9czmc,serial-reaction-time,1,R,4,0,35,2314,0,3,443.90000009536743,423,L
2022-12-02T18:28:42Z,98n9czmc,serial-reaction-time,1,P,4,1,36,2314,0,3,257.7999999523163,233,H
2022-12-02T18:28:43Z,98n9czmc,serial-reaction-time,1,R,4,1,37,2314,0,4,315.2000000476837,334,L
2022-12-02T18:28:43Z,98n9czmc,serial-reaction-time,1,P,4,1,38,2314,0,1,348.60000014305115,341,H
2022-12-02T18:28:44Z,98n9czmc,serial-reaction-time,1,R,4,1,39,2314,0,1,228.89999985694885,411,L
2022-12-02T18:28:44Z,98n9czmc,serial-reaction-time,1,P,4,1,40,2314,0,4,289.39999985694885,114,H
2022-12-02T18:28:44Z,98n9czmc,serial-reaction-time,NA,R,4,1,41,2314,0,3,236.70000004768372,143,L
2022-12-02T18:28:45Z,98n9czmc,serial-reaction-time,1,R,4,0,41,2314,0,3,495.59999990463257,143,L
2022-12-02T18:28:45Z,98n9czmc,serial-reaction-time,1,P,4,1,42,2314,0,2,451.2999999523163,432,H
2022-12-02T18:28:46Z,98n9czmc,serial-reaction-time,1,R,4,1,43,2314,0,2,273.09999990463257,322,L
2022-12-02T18:28:46Z,98n9czmc,serial-reaction-time,1,P,4,1,44,2314,0,3,335.10000014305115,223,H
2022-12-02T18:28:47Z,98n9czmc,serial-reaction-time,1,R,4,1,45,2314,0,3,302.5,233,H
2022-12-02T18:28:47Z,98n9czmc,serial-reaction-time,1,P,4,1,46,2314,0,1,331.7999999523163,331,H
2022-12-02T18:28:48Z,98n9czmc,serial-reaction-time,1,R,4,1,47,2314,0,4,397,314,L
2022-12-02T18:28:48Z,98n9czmc,serial-reaction-time,1,P,4,1,48,2314,0,4,275.89999985694885,144,H
2022-12-02T18:28:49Z,98n9czmc,serial-reaction-time,1,R,4,1,49,2314,0,1,430.40000009536743,441,L
2022-12-02T18:28:49Z,98n9czmc,serial-reaction-time,1,P,4,1,50,2314,0,2,399.5,412,H
2022-12-02T18:28:50Z,98n9czmc,serial-reaction-time,1,R,4,1,51,2314,0,3,369.59999990463257,123,L
2022-12-02T18:28:50Z,98n9czmc,serial-reaction-time,1,P,4,1,52,2314,0,3,349.5,233,H
2022-12-02T18:28:51Z,98n9czmc,serial-reaction-time,NA,R,4,1,53,2314,0,2,365.39999985694885,332,L
2022-12-02T18:28:51Z,98n9czmc,serial-reaction-time,1,R,4,0,53,2314,0,2,634.1999998092651,332,L
2022-12-02T18:28:51Z,98n9czmc,serial-reaction-time,1,P,4,1,54,2314,0,1,396.7999999523163,321,H
2022-12-02T18:28:52Z,98n9czmc,serial-reaction-time,1,R,4,1,55,2314,0,4,373.60000014305115,214,L
2022-12-02T18:28:52Z,98n9czmc,serial-reaction-time,1,P,4,1,56,2314,0,4,272.7999999523163,144,H
2022-12-02T18:28:53Z,98n9czmc,serial-reaction-time,1,R,4,1,57,2314,0,4,370.59999990463257,444,R
2022-12-02T18:28:53Z,98n9czmc,serial-reaction-time,1,P,4,1,58,2314,0,2,431.80000019073486,442,H
2022-12-02T18:28:54Z,98n9czmc,serial-reaction-time,NA,R,4,1,59,2314,0,1,190.3000001907349,421,L
2022-12-02T18:28:54Z,98n9czmc,serial-reaction-time,1,R,4,0,59,2314,0,1,470.30000019073486,421,L
2022-12-02T18:28:55Z,98n9czmc,serial-reaction-time,1,P,4,1,60,2314,0,3,542.3999998569489,213,H
2022-12-02T18:28:55Z,98n9czmc,serial-reaction-time,1,R,4,1,61,2314,0,3,256.2999999523163,133,L
2022-12-02T18:28:56Z,98n9czmc,serial-reaction-time,1,P,4,1,62,2314,0,1,349.60000014305115,331,H
2022-12-02T18:28:56Z,98n9czmc,serial-reaction-time,1,R,4,1,63,2314,0,3,407.10000014305115,313,T
2022-12-02T18:28:57Z,98n9czmc,serial-reaction-time,1,P,4,1,64,2314,0,4,310,134,H
2022-12-02T18:28:57Z,98n9czmc,serial-reaction-time,1,R,4,1,65,2314,0,4,291.40000009536743,344,L
2022-12-02T18:28:57Z,98n9czmc,serial-reaction-time,1,P,4,1,66,2314,0,2,360.2999999523163,442,H
2022-12-02T18:28:58Z,98n9czmc,serial-reaction-time,1,R,4,1,67,2314,0,3,380.40000009536743,423,L
2022-12-02T18:28:58Z,98n9czmc,serial-reaction-time,1,P,4,1,68,2314,0,3,283.40000009536743,233,H
2022-12-02T18:28:59Z,98n9czmc,serial-reaction-time,NA,R,4,1,69,2314,0,2,327.7999999523163,332,L
2022-12-02T18:28:59Z,98n9czmc,serial-reaction-time,1,R,4,0,69,2314,0,2,615,332,L
2022-12-02T18:29:00Z,98n9czmc,serial-reaction-time,1,P,4,1,70,2314,0,1,366.09999990463257,321,H
2022-12-02T18:29:00Z,98n9czmc,serial-reaction-time,1,R,4,1,71,2314,0,3,390,213,H
2022-12-02T18:29:01Z,98n9czmc,serial-reaction-time,1,P,4,1,72,2314,0,4,338.5,134,H
2022-12-02T18:29:01Z,98n9czmc,serial-reaction-time,1,R,4,1,73,2314,0,4,315.30000019073486,344,L
2022-12-02T18:29:02Z,98n9czmc,serial-reaction-time,1,P,4,1,74,2314,0,2,334.09999990463257,442,H
2022-12-02T18:29:02Z,98n9czmc,serial-reaction-time,1,R,4,1,75,2314,0,3,380.10000014305115,423,L
2022-12-02T18:29:03Z,98n9czmc,serial-reaction-time,1,P,4,1,76,2314,0,3,321.90000009536743,233,H
2022-12-02T18:29:03Z,98n9czmc,serial-reaction-time,1,R,4,1,77,2314,0,2,362.7999999523163,332,L
2022-12-02T18:29:04Z,98n9czmc,serial-reaction-time,1,P,4,1,78,2314,0,1,436.7999999523163,321,H
2022-12-02T18:29:04Z,98n9czmc,serial-reaction-time,NA,R,4,1,79,2314,0,4,422.10000014305115,214,L
2022-12-02T18:29:04Z,98n9czmc,serial-reaction-time,1,R,4,0,79,2314,0,4,605.2000002861023,214,L
2022-12-02T18:29:05Z,98n9czmc,serial-reaction-time,1,P,4,1,80,2314,0,4,296.40000009536743,144,H
2022-12-02T18:29:10Z,98n9czmc,html-keyboard-response,NA,NA,NA,NA,NA,NA,NA,NA,NA,NA,NA
2022-12-02T18:29:11Z,98n9czmc,html-keyboard-response,NA,NA,NA,NA,NA,NA,NA,NA,NA,NA,NA
2022-12-02T18:29:12Z,98n9czmc,serial-reaction-time,1,R,5,1,1,2314,0,3,336.69999980926514,3,X
2022-12-02T18:29:12Z,98n9czmc,serial-reaction-time,1,P,5,1,2,2314,0,2,328.30000019073486,32,X
2022-12-02T18:29:13Z,98n9czmc,serial-reaction-time,1,R,5,1,3,2314,0,3,290.7999999523163,323,T
2022-12-02T18:29:13Z,98n9czmc,serial-reaction-time,1,P,5,1,4,2314,0,3,315.60000014305115,233,H
2022-12-02T18:29:14Z,98n9czmc,serial-reaction-time,1,R,5,1,5,2314,0,2,310.2999999523163,332,L
2022-12-02T18:29:14Z,98n9czmc,serial-reaction-time,1,P,5,1,6,2314,0,1,341.60000014305115,321,H
2022-12-02T18:29:15Z,98n9czmc,serial-reaction-time,1,R,5,1,7,2314,0,3,341.2999999523163,213,H
2022-12-02T18:29:15Z,98n9czmc,serial-reaction-time,1,P,5,1,8,2314,0,4,330.40000009536743,134,H
2022-12-02T18:29:16Z,98n9czmc,serial-reaction-time,NA,R,5,1,9,2314,0,1,382.89999985694885,341,H
2022-12-02T18:29:16Z,98n9czmc,serial-reaction-time,1,R,5,0,9,2314,0,1,598.5,341,H
2022-12-02T18:29:16Z,98n9czmc,serial-reaction-time,1,P,5,1,10,2314,0,2,338.09999990463257,412,H
2022-12-02T18:29:17Z,98n9czmc,serial-reaction-time,1,R,5,1,11,2314,0,4,362.5,124,H
2022-12-02T18:29:17Z,98n9czmc,serial-reaction-time,1,P,5,1,12,2314,0,3,390.7999999523163,243,H
2022-12-02T18:29:18Z,98n9czmc,serial-reaction-time,NA,R,5,1,13,2314,0,4,323.09999990463257,434,T
2022-12-02T18:29:18Z,98n9czmc,serial-reaction-time,1,R,5,0,13,2314,0,4,506.59999990463257,434,T
2022-12-02T18:29:18Z,98n9czmc,serial-reaction-time,1,P,5,1,14,2314,0,1,384.09999990463257,341,H
2022-12-02T18:29:19Z,98n9czmc,serial-reaction-time,1,R,5,1,15,2314,0,3,348.2999999523163,413,L
2022-12-02T18:29:19Z,98n9czmc,serial-reaction-time,1,P,5,1,16,2314,0,4,323.7999999523163,134,H
2022-12-02T18:29:20Z,98n9czmc,serial-reaction-time,1,R,5,1,17,2314,0,1,417.2000000476837,341,H
2022-12-02T18:29:20Z,98n9czmc,serial-reaction-time,NA,P,5,1,18,2314,0,2,324.2000000476837,412,H
2022-12-02T18:29:21Z,98n9czmc,serial-reaction-time,1,P,5,0,18,2314,0,2,718.8999998569489,412,H
2022-12-02T18:29:21Z,98n9czmc,serial-reaction-time,1,R,5,1,19,2314,0,2,330.09999990463257,122,L
2022-12-02T18:29:22Z,98n9czmc,serial-reaction-time,1,P,5,1,20,2314,0,3,328,223,H
2022-12-02T18:29:22Z,98n9czmc,serial-reaction-time,1,R,5,1,21,2314,0,4,307.30000019073486,234,L
2022-12-02T18:29:23Z,98n9czmc,serial-reaction-time,1,P,5,1,22,2314,0,1,432.40000009536743,341,H
2022-12-02T18:29:23Z,98n9czmc,serial-reaction-time,1,R,5,1,23,2314,0,3,381.10000014305115,413,L
2022-12-02T18:29:24Z,98n9czmc,serial-reaction-time,1,P,5,1,24,2314,0,4,328.19999980926514,134,H
2022-12-02T18:29:24Z,98n9czmc,serial-reaction-time,1,R,5,1,25,2314,0,4,274,344,L
2022-12-02T18:29:25Z,98n9czmc,serial-reaction-time,1,P,5,1,26,2314,0,2,336,442,H
2022-12-02T18:29:25Z,98n9czmc,serial-reaction-time,1,R,5,1,27,2314,0,1,381.09999990463257,421,L
2022-12-02T18:29:26Z,98n9czmc,serial-reaction-time,1,P,5,1,28,2314,0,3,361.2999999523163,213,H
2022-12-02T18:29:26Z,98n9czmc,serial-reaction-time,1,R,5,1,29,2314,0,1,375.7999999523163,131,T
2022-12-02T18:29:27Z,98n9czmc,serial-reaction-time,1,P,5,1,30,2314,0,1,328.2999999523163,311,H
2022-12-02T18:29:27Z,98n9czmc,serial-reaction-time,1,R,5,1,31,2314,0,3,338.40000009536743,113,L
2022-12-02T18:29:27Z,98n9czmc,serial-reaction-time,1,P,5,1,32,2314,0,4,279.7999999523163,134,H
2022-12-02T18:29:28Z,98n9czmc,serial-reaction-time,1,R,5,1,33,2314,0,3,403.10000014305115,343,T
2022-12-02T18:29:29Z,98n9czmc,serial-reaction-time,1,P,5,1,34,2314,0,2,329.5,432,H
2022-12-02T18:29:29Z,98n9czmc,serial-reaction-time,1,R,5,1,35,2314,0,4,366.2000000476837,324,L
2022-12-02T18:29:29Z,98n9czmc,serial-reaction-time,1,P,5,1,36,2314,0,3,330.7000000476837,243,H
2022-12-02T18:29:30Z,98n9czmc,serial-reaction-time,1,R,5,1,37,2314,0,3,329.30000019073486,433,L
2022-12-02T18:29:30Z,98n9czmc,serial-reaction-time,1,P,5,1,38,2314,0,1,398.7999999523163,331,H
2022-12-02T18:29:31Z,98n9czmc,serial-reaction-time,1,R,5,1,39,2314,0,1,325.90000009536743,311,H
2022-12-02T18:29:31Z,98n9czmc,serial-reaction-time,1,P,5,1,40,2314,0,4,312.2999999523163,114,H
2022-12-02T18:29:32Z,98n9czmc,serial-reaction-time,NA,R,5,1,41,2314,0,1,376.40000009536743,141,T
2022-12-02T18:29:32Z,98n9czmc,serial-reaction-time,1,R,5,0,41,2314,0,1,597,141,T
2022-12-02T18:29:33Z,98n9czmc,serial-reaction-time,1,P,5,1,42,2314,0,2,513.4000000953674,412,H
2022-12-02T18:29:33Z,98n9czmc,serial-reaction-time,1,R,5,1,43,2314,0,1,445.59999990463257,121,T
2022-12-02T18:29:34Z,98n9czmc,serial-reaction-time,1,P,5,1,44,2314,0,3,368.90000009536743,213,H
2022-12-02T18:29:34Z,98n9czmc,serial-reaction-time,1,R,5,1,45,2314,0,4,322.89999985694885,134,H
2022-12-02T18:29:35Z,98n9czmc,serial-reaction-time,1,P,5,1,46,2314,0,1,423.2999999523163,341,H
2022-12-02T18:29:35Z,98n9czmc,serial-reaction-time,1,R,5,1,47,2314,0,3,398.89999985694885,413,L
2022-12-02T18:29:36Z,98n9czmc,serial-reaction-time,1,P,5,1,48,2314,0,4,297,134,H
2022-12-02T18:29:36Z,98n9czmc,serial-reaction-time,1,R,5,1,49,2314,0,1,340,341,H
2022-12-02T18:29:37Z,98n9czmc,serial-reaction-time,1,P,5,1,50,2314,0,2,362.89999985694885,412,H
2022-12-02T18:29:37Z,98n9czmc,serial-reaction-time,1,R,5,1,51,2314,0,1,358.2000000476837,121,T
2022-12-02T18:29:38Z,98n9czmc,serial-reaction-time,1,P,5,1,52,2314,0,3,369.80000019073486,213,H
2022-12-02T18:29:38Z,98n9czmc,serial-reaction-time,1,R,5,1,53,2314,0,1,352.89999985694885,131,T
2022-12-02T18:29:39Z,98n9czmc,serial-reaction-time,1,P,5,1,54,2314,0,1,375.5,311,H
2022-12-02T18:29:39Z,98n9czmc,serial-reaction-time,1,R,5,1,55,2314,0,3,355.5,113,L
2022-12-02T18:29:40Z,98n9czmc,serial-reaction-time,1,P,5,1,56,2314,0,4,296.2999999523163,134,H
2022-12-02T18:29:40Z,98n9czmc,serial-reaction-time,1,R,5,1,57,2314,0,4,320.90000009536743,344,L
2022-12-02T18:29:41Z,98n9czmc,serial-reaction-time,1,P,5,1,58,2314,0,2,391.2999999523163,442,H
2022-12-02T18:29:41Z,98n9czmc,serial-reaction-time,1,R,5,1,59,2314,0,4,366.89999985694885,424,T
2022-12-02T18:29:42Z,98n9czmc,serial-reaction-time,1,P,5,1,60,2314,0,3,400,243,H
2022-12-02T18:29:42Z,98n9czmc,serial-reaction-time,1,R,5,1,61,2314,0,4,327.60000014305115,434,T
2022-12-02T18:29:43Z,98n9czmc,serial-reaction-time,1,P,5,1,62,2314,0,1,409.90000009536743,341,H
2022-12-02T18:29:43Z,98n9czmc,serial-reaction-time,NA,R,5,1,63,2314,0,2,304.40000009536743,412,H
2022-12-02T18:29:43Z,98n9czmc,serial-reaction-time,1,R,5,0,63,2314,0,2,467.2000000476837,412,H
2022-12-02T18:29:44Z,98n9czmc,serial-reaction-time,1,P,5,1,64,2314,0,4,361.10000014305115,124,H
2022-12-02T18:29:44Z,98n9czmc,serial-reaction-time,1,R,5,1,65,2314,0,1,389.2999999523163,241,L
2022-12-02T18:29:45Z,98n9czmc,serial-reaction-time,1,P,5,1,66,2314,0,2,368.19999980926514,412,H
2022-12-02T18:29:45Z,98n9czmc,serial-reaction-time,NA,R,5,1,67,2314,0,2,372.09999990463257,122,L
2022-12-02T18:29:45Z,98n9czmc,serial-reaction-time,1,R,5,0,67,2314,0,2,437.7000000476837,122,L
2022-12-02T18:29:46Z,98n9czmc,serial-reaction-time,1,P,5,1,68,2314,0,3,419.40000009536743,223,H
2022-12-02T18:29:46Z,98n9czmc,serial-reaction-time,1,R,5,1,69,2314,0,4,435.2999999523163,234,L
2022-12-02T18:29:47Z,98n9czmc,serial-reaction-time,1,P,5,1,70,2314,0,1,404.7999999523163,341,H
2022-12-02T18:29:47Z,98n9czmc,serial-reaction-time,1,R,5,1,71,2314,0,4,365,414,T
2022-12-02T18:29:48Z,98n9czmc,serial-reaction-time,1,P,5,1,72,2314,0,4,311.59999990463257,144,H
2022-12-02T18:29:48Z,98n9czmc,serial-reaction-time,1,R,5,1,73,2314,0,4,333.7999999523163,444,R
2022-12-02T18:29:49Z,98n9czmc,serial-reaction-time,1,P,5,1,74,2314,0,2,344.59999990463257,442,H
2022-12-02T18:29:49Z,98n9czmc,serial-reaction-time,1,R,5,1,75,2314,0,4,365.2000000476837,424,T
2022-12-02T18:29:50Z,98n9czmc,serial-reaction-time,NA,P,5,1,76,2314,0,3,325.7999999523163,243,H
2022-12-02T18:29:50Z,98n9czmc,serial-reaction-time,1,P,5,0,76,2314,0,3,531.2999999523163,243,H
2022-12-02T18:29:50Z,98n9czmc,serial-reaction-time,1,R,5,1,77,2314,0,3,279.7999999523163,433,L
2022-12-02T18:29:51Z,98n9czmc,serial-reaction-time,1,P,5,1,78,2314,0,1,372,331,H
2022-12-02T18:29:51Z,98n9czmc,serial-reaction-time,1,R,5,1,79,2314,0,4,395.69999980926514,314,L
2022-12-02T18:29:52Z,98n9czmc,serial-reaction-time,1,P,5,1,80,2314,0,4,273.5,144,H
2022-12-02T18:29:57Z,98n9czmc,html-keyboard-response,NA,NA,NA,NA,NA,NA,NA,NA,NA,NA,NA
2022-12-02T18:30:00Z,98n9czmc,html-keyboard-response,NA,NA,NA,NA,NA,NA,NA,NA,NA,NA,NA
2022-12-02T18:30:01Z,98n9czmc,fullscreen,NA,NA,NA,NA,NA,NA,NA,NA,NA,NA,NA
2022-12-02T18:49:38Z,zy448n7y,fullscreen,NA,NA,NA,NA,NA,NA,NA,NA,NA,NA,NA
2022-12-02T18:49:42Z,zy448n7y,html-keyboard-response,NA,NA,NA,NA,NA,NA,NA,NA,NA,NA,NA
2022-12-02T18:49:44Z,zy448n7y,serial-reaction-time,1,R,1,1,1,4132,0,1,689.8000000007451,1,X
2022-12-02T18:49:44Z,zy448n7y,serial-reaction-time,1,P,1,1,2,4132,0,4,524.4000000022352,14,X
2022-12-02T18:49:45Z,zy448n7y,serial-reaction-time,1,R,1,1,3,4132,0,3,430.5,143,H
2022-12-02T18:49:46Z,zy448n7y,serial-reaction-time,1,P,1,1,4,4132,0,1,546,431,H
2022-12-02T18:49:46Z,zy448n7y,serial-reaction-time,1,R,1,1,5,4132,0,3,517.3999999985099,313,T
2022-12-02T18:49:47Z,zy448n7y,serial-reaction-time,1,P,1,1,6,4132,0,3,347.5,133,H
2022-12-02T18:49:47Z,zy448n7y,serial-reaction-time,1,R,1,1,7,4132,0,3,328.30000000074506,333,R
2022-12-02T18:49:48Z,zy448n7y,serial-reaction-time,1,P,1,1,8,4132,0,2,459.9000000022352,332,H
2022-12-02T18:49:48Z,zy448n7y,serial-reaction-time,1,R,1,1,9,4132,0,1,397.5,321,L
2022-12-02T18:49:49Z,zy448n7y,serial-reaction-time,1,P,1,1,10,4132,0,4,500.5,214,H
2022-12-02T18:49:50Z,zy448n7y,serial-reaction-time,1,R,1,1,11,4132,0,2,677.6999999992549,142,L
2022-12-02T18:49:50Z,zy448n7y,serial-reaction-time,1,P,1,1,12,4132,0,1,416.1000000014901,421,H
2022-12-02T18:49:51Z,zy448n7y,serial-reaction-time,1,R,1,1,13,4132,0,2,391.69999999925494,212,T
2022-12-02T18:49:51Z,zy448n7y,serial-reaction-time,1,P,1,1,14,4132,0,3,359.19999999925494,123,H
2022-12-02T18:49:52Z,zy448n7y,serial-reaction-time,1,R,1,1,15,4132,0,1,615.8000000007451,231,L
2022-12-02T18:49:53Z,zy448n7y,serial-reaction-time,1,P,1,1,16,4132,0,2,389.6000000014901,312,H
2022-12-02T18:49:53Z,zy448n7y,serial-reaction-time,1,R,1,1,17,4132,0,2,346.80000000074506,122,L
2022-12-02T18:49:54Z,zy448n7y,serial-reaction-time,1,P,1,1,18,4132,0,4,512.1000000014901,224,H
2022-12-02T18:49:54Z,zy448n7y,serial-reaction-time,1,R,1,1,19,4132,0,4,310.3999999985099,244,H
2022-12-02T18:49:55Z,zy448n7y,serial-reaction-time,1,P,1,1,20,4132,0,1,379.69999999925494,441,H
2022-12-02T18:49:55Z,zy448n7y,serial-reaction-time,1,R,1,1,21,4132,0,1,279.3999999985099,411,H
2022-12-02T18:49:56Z,zy448n7y,serial-reaction-time,1,P,1,1,22,4132,0,3,348,113,H
2022-12-02T18:49:56Z,zy448n7y,serial-reaction-time,1,R,1,1,23,4132,0,1,453.69999999925494,131,T
2022-12-02T18:49:57Z,zy448n7y,serial-reaction-time,1,P,1,1,24,4132,0,2,432.69999999925494,312,H
2022-12-02T18:49:57Z,zy448n7y,serial-reaction-time,1,R,1,1,25,4132,0,1,430.8999999985099,121,T
2022-12-02T18:49:58Z,zy448n7y,serial-reaction-time,1,P,1,1,26,4132,0,4,444.3999999985099,214,H
2022-12-02T18:49:59Z,zy448n7y,serial-reaction-time,1,R,1,1,27,4132,0,2,812.1999999992549,142,L
2022-12-02T18:50:00Z,zy448n7y,serial-reaction-time,1,P,1,1,28,4132,0,1,452.19999999925494,421,H
2022-12-02T18:50:00Z,zy448n7y,serial-reaction-time,1,R,1,1,29,4132,0,2,405.6000000014901,212,T
2022-12-02T18:50:01Z,zy448n7y,serial-reaction-time,1,P,1,1,30,4132,0,3,504.3999999985099,123,H
2022-12-02T18:50:01Z,zy448n7y,serial-reaction-time,1,R,1,1,31,4132,0,4,380.5,234,H
2022-12-02T18:50:02Z,zy448n7y,serial-reaction-time,1,P,1,1,32,4132,0,2,636,342,H
2022-12-02T18:50:03Z,zy448n7y,serial-reaction-time,1,R,1,1,33,4132,0,3,356.79999999701977,423,L
2022-12-02T18:50:03Z,zy448n7y,serial-reaction-time,1,P,1,1,34,4132,0,4,394,234,H
2022-12-02T18:50:04Z,zy448n7y,serial-reaction-time,1,R,1,1,35,4132,0,2,449.70000000298023,342,H
2022-12-02T18:50:04Z,zy448n7y,serial-reaction-time,1,P,1,1,36,4132,0,1,380.20000000298023,421,H
2022-12-02T18:50:05Z,zy448n7y,serial-reaction-time,1,R,1,1,37,4132,0,1,292.19999999925494,211,L
2022-12-02T18:50:05Z,zy448n7y,serial-reaction-time,1,P,1,1,38,4132,0,3,365.19999999925494,113,H
2022-12-02T18:50:06Z,zy448n7y,serial-reaction-time,1,R,1,1,39,4132,0,3,258.69999999925494,133,H
2022-12-02T18:50:06Z,zy448n7y,serial-reaction-time,1,P,1,1,40,4132,0,2,507.0999999977648,332,H
2022-12-02T18:50:07Z,zy448n7y,serial-reaction-time,1,R,1,1,41,4132,0,2,293.30000000074506,322,H
2022-12-02T18:50:07Z,zy448n7y,serial-reaction-time,1,P,1,1,42,4132,0,4,396.8999999985099,224,H
2022-12-02T18:50:08Z,zy448n7y,serial-reaction-time,1,R,1,1,43,4132,0,2,561.6000000014901,242,T
2022-12-02T18:50:08Z,zy448n7y,serial-reaction-time,1,P,1,1,44,4132,0,1,408.8999999985099,421,H
2022-12-02T18:50:09Z,zy448n7y,serial-reaction-time,1,R,1,1,45,4132,0,4,500.6000000014901,214,H
2022-12-02T18:50:10Z,zy448n7y,serial-reaction-time,1,P,1,1,46,4132,0,3,440.29999999701977,143,H
2022-12-02T18:50:10Z,zy448n7y,serial-reaction-time,1,R,1,1,47,4132,0,2,484.5,432,L
2022-12-02T18:50:11Z,zy448n7y,serial-reaction-time,1,P,1,1,48,4132,0,2,327.20000000298023,322,H
2022-12-02T18:50:11Z,zy448n7y,serial-reaction-time,1,R,1,1,49,4132,0,2,346.20000000298023,222,R
2022-12-02T18:50:12Z,zy448n7y,serial-reaction-time,1,P,1,1,50,4132,0,4,334.8999999985099,224,H
2022-12-02T18:50:12Z,zy448n7y,serial-reaction-time,1,R,1,1,51,4132,0,3,413.30000000074506,243,L
2022-12-02T18:50:13Z,zy448n7y,serial-reaction-time,1,P,1,1,52,4132,0,1,408.80000000074506,431,H
2022-12-02T18:50:13Z,zy448n7y,serial-reaction-time,1,R,1,1,53,4132,0,1,268.69999999925494,311,L
2022-12-02T18:50:14Z,zy448n7y,serial-reaction-time,1,P,1,1,54,4132,0,3,343.6000000014901,113,H
2022-12-02T18:50:14Z,zy448n7y,serial-reaction-time,1,R,1,1,55,4132,0,1,371.8999999985099,131,T
2022-12-02T18:50:15Z,zy448n7y,serial-reaction-time,NA,P,1,1,56,4132,0,2,235.69999999925497,312,H
2022-12-02T18:50:15Z,zy448n7y,serial-reaction-time,1,P,1,0,56,4132,0,2,528.3000000007451,312,H
2022-12-02T18:50:15Z,zy448n7y,serial-reaction-time,1,R,1,1,57,4132,0,1,387.5999999977648,121,T
2022-12-02T18:50:16Z,zy448n7y,serial-reaction-time,NA,P,1,1,58,4132,0,4,375.29999999701977,214,H
2022-12-02T18:50:16Z,zy448n7y,serial-reaction-time,1,P,1,0,58,4132,0,4,657.4999999962747,214,H
2022-12-02T18:50:17Z,zy448n7y,serial-reaction-time,1,R,1,1,59,4132,0,2,579.5,142,L
2022-12-02T18:50:17Z,zy448n7y,serial-reaction-time,1,P,1,1,60,4132,0,1,371.5,421,H
2022-12-02T18:50:18Z,zy448n7y,serial-reaction-time,1,R,1,1,61,4132,0,1,251.19999999925497,211,L
2022-12-02T18:50:18Z,zy448n7y,serial-reaction-time,1,P,1,1,62,4132,0,3,367.69999999925494,113,H
2022-12-02T18:50:19Z,zy448n7y,serial-reaction-time,1,R,1,1,63,4132,0,1,396.6000000014901,131,T
2022-12-02T18:50:19Z,zy448n7y,serial-reaction-time,NA,P,1,1,64,4132,0,2,252.30000000074503,312,H
2022-12-02T18:50:20Z,zy448n7y,serial-reaction-time,1,P,1,0,64,4132,0,2,549.6999999992549,312,H
2022-12-02T18:50:20Z,zy448n7y,serial-reaction-time,1,R,1,1,65,4132,0,4,590.6999999992549,124,L
2022-12-02T18:50:21Z,zy448n7y,serial-reaction-time,1,P,1,1,66,4132,0,4,268.6000000014901,244,H
2022-12-02T18:50:22Z,zy448n7y,serial-reaction-time,1,R,1,1,67,4132,0,2,715.8000000007451,442,L
2022-12-02T18:50:22Z,zy448n7y,serial-reaction-time,1,P,1,1,68,4132,0,1,404.20000000298023,421,H
2022-12-02T18:50:23Z,zy448n7y,serial-reaction-time,1,R,1,1,69,4132,0,4,688.1999999992549,214,H
2022-12-02T18:50:24Z,zy448n7y,serial-reaction-time,1,P,1,1,70,4132,0,3,404.9000000022352,143,H
2022-12-02T18:50:24Z,zy448n7y,serial-reaction-time,1,R,1,1,71,4132,0,3,263.69999999925494,433,L
2022-12-02T18:50:25Z,zy448n7y,serial-reaction-time,1,P,1,1,72,4132,0,2,556.1000000014901,332,H
2022-12-02T18:50:25Z,zy448n7y,serial-reaction-time,1,R,1,1,73,4132,0,4,414.1000000014901,324,L
2022-12-02T18:50:26Z,zy448n7y,serial-reaction-time,1,P,1,1,74,4132,0,4,266.30000000074506,244,H
2022-12-02T18:50:26Z,zy448n7y,serial-reaction-time,1,R,1,1,75,4132,0,1,349.69999999925494,441,H
2022-12-02T18:50:27Z,zy448n7y,serial-reaction-time,1,P,1,1,76,4132,0,1,295.69999999925494,411,H
2022-12-02T18:50:27Z,zy448n7y,serial-reaction-time,NA,R,1,1,77,4132,0,4,402.5999999977648,114,L
2022-12-02T18:50:27Z,zy448n7y,serial-reaction-time,1,R,1,0,77,4132,0,4,653.6999999955297,114,L
2022-12-02T18:50:28Z,zy448n7y,serial-reaction-time,1,P,1,1,78,4132,0,3,459.19999999925494,143,H
2022-12-02T18:50:28Z,zy448n7y,serial-reaction-time,NA,R,1,1,79,4132,0,4,291.19999999925494,434,T
2022-12-02T18:50:29Z,zy448n7y,serial-reaction-time,1,R,1,0,79,4132,0,4,522.6999999992549,434,T
2022-12-02T18:50:29Z,zy448n7y,serial-reaction-time,1,P,1,1,80,4132,0,2,576.1999999992549,342,H
2022-12-02T18:50:34Z,zy448n7y,html-keyboard-response,NA,NA,NA,NA,NA,NA,NA,NA,NA,NA,NA
2022-12-02T18:50:35Z,zy448n7y,html-keyboard-response,NA,NA,NA,NA,NA,NA,NA,NA,NA,NA,NA
2022-12-02T18:50:37Z,zy448n7y,serial-reaction-time,1,R,2,1,1,4132,0,3,477.5999999977648,3,X
2022-12-02T18:50:37Z,zy448n7y,serial-reaction-time,1,P,2,1,2,4132,0,4,360.5999999977648,34,X
2022-12-02T18:50:38Z,zy448n7y,serial-reaction-time,1,R,2,1,3,4132,0,1,446.6000000014901,341,L
2022-12-02T18:50:38Z,zy448n7y,serial-reaction-time,1,P,2,1,4,4132,0,1,290.30000000074506,411,H
2022-12-02T18:50:39Z,zy448n7y,serial-reaction-time,1,R,2,1,5,4132,0,1,319.8999999985099,111,R
2022-12-02T18:50:39Z,zy448n7y,serial-reaction-time,1,P,2,1,6,4132,0,3,500.19999999925494,113,H
2022-12-02T18:50:40Z,zy448n7y,serial-reaction-time,1,R,2,1,7,4132,0,1,641.1999999992549,131,T
2022-12-02T18:50:41Z,zy448n7y,serial-reaction-time,1,P,2,1,8,4132,0,2,388.69999999925494,312,H
2022-12-02T18:50:41Z,zy448n7y,serial-reaction-time,1,R,2,1,9,4132,0,4,625.6999999992549,124,L
2022-12-02T18:50:42Z,zy448n7y,serial-reaction-time,1,P,2,1,10,4132,0,4,289.69999999925494,244,H
2022-12-02T18:50:42Z,zy448n7y,serial-reaction-time,1,R,2,1,11,4132,0,1,443.5,441,H
2022-12-02T18:50:43Z,zy448n7y,serial-reaction-time,1,P,2,1,12,4132,0,1,290.70000000298023,411,H
2022-12-02T18:50:43Z,zy448n7y,serial-reaction-time,1,R,2,1,13,4132,0,3,370.70000000298023,113,H
2022-12-02T18:50:44Z,zy448n7y,serial-reaction-time,1,P,2,1,14,4132,0,3,260.6000000014901,133,H
2022-12-02T18:50:44Z,zy448n7y,serial-reaction-time,1,R,2,1,15,4132,0,3,309,333,R
2022-12-02T18:50:45Z,zy448n7y,serial-reaction-time,1,P,2,1,16,4132,0,2,374,332,H
2022-12-02T18:50:45Z,zy448n7y,serial-reaction-time,1,R,2,1,17,4132,0,2,247,322,H
2022-12-02T18:50:46Z,zy448n7y,serial-reaction-time,1,P,2,1,18,4132,0,4,459.69999999925494,224,H
2022-12-02T18:50:46Z,zy448n7y,serial-reaction-time,1,R,2,1,19,4132,0,2,413.69999999925494,242,T
2022-12-02T18:50:47Z,zy448n7y,serial-reaction-time,1,P,2,1,20,4132,0,1,397.9000000022352,421,H
2022-12-02T18:50:47Z,zy448n7y,serial-reaction-time,1,R,2,1,21,4132,0,1,282.80000000074506,211,L
2022-12-02T18:50:48Z,zy448n7y,serial-reaction-time,1,P,2,1,22,4132,0,3,395.69999999925494,113,H
2022-12-02T18:50:48Z,zy448n7y,serial-reaction-time,NA,R,2,1,23,4132,0,2,369.30000000074506,132,L
2022-12-02T18:50:49Z,zy448n7y,serial-reaction-time,1,R,2,0,23,4132,0,2,733.3999999985099,132,L
2022-12-02T18:50:49Z,zy448n7y,serial-reaction-time,1,P,2,1,24,4132,0,2,292.19999999925494,322,H
2022-12-02T18:50:49Z,zy448n7y,serial-reaction-time,1,R,2,1,25,4132,0,2,301.5,222,R
2022-12-02T18:50:50Z,zy448n7y,serial-reaction-time,1,P,2,1,26,4132,0,4,377.19999999925494,224,H
2022-12-02T18:50:51Z,zy448n7y,serial-reaction-time,1,R,2,1,27,4132,0,1,731.8999999985099,241,L
2022-12-02T18:50:51Z,zy448n7y,serial-reaction-time,1,P,2,1,28,4132,0,1,268.69999999925494,411,H
2022-12-02T18:50:52Z,zy448n7y,serial-reaction-time,NA,R,2,1,29,4132,0,4,393.3999999985099,114,L
2022-12-02T18:50:52Z,zy448n7y,serial-reaction-time,1,R,2,0,29,4132,0,4,786.6999999992549,114,L
2022-12-02T18:50:53Z,zy448n7y,serial-reaction-time,1,P,2,1,30,4132,0,3,428.4000000022352,143,H
2022-12-02T18:50:53Z,zy448n7y,serial-reaction-time,1,R,2,1,31,4132,0,3,288.5,433,L
2022-12-02T18:50:54Z,zy448n7y,serial-reaction-time,1,P,2,1,32,4132,0,2,377.4000000022352,332,H
2022-12-02T18:50:54Z,zy448n7y,serial-reaction-time,1,R,2,1,33,4132,0,2,218.90000000223517,322,H
2022-12-02T18:50:55Z,zy448n7y,serial-reaction-time,1,P,2,1,34,4132,0,4,530.3000000007451,224,H
2022-12-02T18:50:55Z,zy448n7y,serial-reaction-time,1,R,2,1,35,4132,0,1,521.5999999977648,241,L
2022-12-02T18:50:56Z,zy448n7y,serial-reaction-time,1,P,2,1,36,4132,0,1,236.10000000149012,411,H
2022-12-02T18:50:56Z,zy448n7y,serial-reaction-time,NA,R,2,1,37,4132,0,4,398.69999999925494,114,L
2022-12-02T18:50:57Z,zy448n7y,serial-reaction-time,1,R,2,0,37,4132,0,4,627.1999999992549,114,L
2022-12-02T18:50:57Z,zy448n7y,serial-reaction-time,1,P,2,1,38,4132,0,3,404.80000000074506,143,H
2022-12-02T18:50:58Z,zy448n7y,serial-reaction-time,1,R,2,1,39,4132,0,2,446.70000000298023,432,L
2022-12-02T18:50:58Z,zy448n7y,serial-reaction-time,1,P,2,1,40,4132,0,2,236.5,322,H
2022-12-02T18:50:59Z,zy448n7y,serial-reaction-time,1,R,2,1,41,4132,0,4,401.69999999925494,224,H
2022-12-02T18:50:59Z,zy448n7y,serial-reaction-time,1,P,2,1,42,4132,0,4,235.60000000149012,244,H
2022-12-02T18:50:59Z,zy448n7y,serial-reaction-time,1,R,2,1,43,4132,0,2,428.80000000074506,442,L
2022-12-02T18:51:00Z,zy448n7y,serial-reaction-time,1,P,2,1,44,4132,0,1,410.19999999925494,421,H
2022-12-02T18:51:00Z,zy448n7y,serial-reaction-time,NA,R,2,1,45,4132,0,2,236,212,T
2022-12-02T18:51:01Z,zy448n7y,serial-reaction-time,1,R,2,0,45,4132,0,2,510,212,T
2022-12-02T18:51:01Z,zy448n7y,serial-reaction-time,1,P,2,1,46,4132,0,3,385.5,123,H
2022-12-02T18:51:02Z,zy448n7y,serial-reaction-time,1,R,2,1,47,4132,0,4,565.6999999992549,234,H
2022-12-02T18:51:03Z,zy448n7y,serial-reaction-time,1,P,2,1,48,4132,0,2,969.0999999977648,342,H
2022-12-02T18:51:03Z,zy448n7y,serial-reaction-time,NA,R,2,1,49,4132,0,3,262.30000000074506,423,L
2022-12-02T18:51:04Z,zy448n7y,serial-reaction-time,1,R,2,0,49,4132,0,3,450.80000000074506,423,L
2022-12-02T18:51:04Z,zy448n7y,serial-reaction-time,1,P,2,1,50,4132,0,4,551.1999999992549,234,H
2022-12-02T18:51:05Z,zy448n7y,serial-reaction-time,1,R,2,1,51,4132,0,2,691.3999999985099,342,H
2022-12-02T18:51:06Z,zy448n7y,serial-reaction-time,1,P,2,1,52,4132,0,1,409.69999999925494,421,H
2022-12-02T18:51:06Z,zy448n7y,serial-reaction-time,1,R,2,1,53,4132,0,2,488.5999999977648,212,T
2022-12-02T18:51:07Z,zy448n7y,serial-reaction-time,1,P,2,1,54,4132,0,3,415.9000000022352,123,H
2022-12-02T18:51:07Z,zy448n7y,serial-reaction-time,1,R,2,1,55,4132,0,3,334,233,L
2022-12-02T18:51:08Z,zy448n7y,serial-reaction-time,1,P,2,1,56,4132,0,2,431.5,332,H
2022-12-02T18:51:09Z,zy448n7y,serial-reaction-time,1,R,2,1,57,4132,0,3,440,323,T
2022-12-02T18:51:09Z,zy448n7y,serial-reaction-time,1,P,2,1,58,4132,0,4,421.1000000014901,234,H
2022-12-02T18:51:10Z,zy448n7y,serial-reaction-time,1,R,2,1,59,4132,0,3,456.30000000074506,343,T
2022-12-02T18:51:10Z,zy448n7y,serial-reaction-time,1,P,2,1,60,4132,0,1,528.8000000007451,431,H
2022-12-02T18:51:11Z,zy448n7y,serial-reaction-time,1,R,2,1,61,4132,0,2,404.4000000022352,312,H
2022-12-02T18:51:12Z,zy448n7y,serial-reaction-time,1,P,2,1,62,4132,0,3,528.3999999985099,123,H
2022-12-02T18:51:12Z,zy448n7y,serial-reaction-time,1,R,2,1,63,4132,0,4,605.5,234,H
2022-12-02T18:51:13Z,zy448n7y,serial-reaction-time,1,P,2,1,64,4132,0,2,743.8000000007451,342,H
2022-12-02T18:51:14Z,zy448n7y,serial-reaction-time,1,R,2,1,65,4132,0,2,308.9000000022352,422,L
2022-12-02T18:51:14Z,zy448n7y,serial-reaction-time,1,P,2,1,66,4132,0,4,542.3000000007451,224,H
2022-12-02T18:51:15Z,zy448n7y,serial-reaction-time,1,R,2,1,67,4132,0,3,439.5999999977648,243,L
2022-12-02T18:51:16Z,zy448n7y,serial-reaction-time,1,P,2,1,68,4132,0,1,592.8999999985099,431,H
2022-12-02T18:51:16Z,zy448n7y,serial-reaction-time,1,R,2,1,69,4132,0,2,379.3999999985099,312,H
2022-12-02T18:51:17Z,zy448n7y,serial-reaction-time,1,P,2,1,70,4132,0,3,444.80000000074506,123,H
2022-12-02T18:51:17Z,zy448n7y,serial-reaction-time,1,R,2,1,71,4132,0,4,627.4000000022352,234,H
2022-12-02T18:51:19Z,zy448n7y,serial-reaction-time,1,P,2,1,72,4132,0,2,1204.5999999977648,342,H
2022-12-02T18:51:19Z,zy448n7y,serial-reaction-time,1,R,2,1,73,4132,0,3,443.1000000014901,423,L
2022-12-02T18:51:20Z,zy448n7y,serial-reaction-time,1,P,2,1,74,4132,0,4,648,234,H
2022-12-02T18:51:21Z,zy448n7y,serial-reaction-time,1,R,2,1,75,4132,0,1,502.6000000014901,341,L
2022-12-02T18:51:21Z,zy448n7y,serial-reaction-time,1,P,2,1,76,4132,0,1,341.30000000074506,411,H
2022-12-02T18:51:22Z,zy448n7y,serial-reaction-time,1,R,2,1,77,4132,0,4,570.5,114,L
2022-12-02T18:51:23Z,zy448n7y,serial-reaction-time,1,P,2,1,78,4132,0,3,379.20000000298023,143,H
2022-12-02T18:51:23Z,zy448n7y,serial-reaction-time,1,R,2,1,79,4132,0,4,433.80000000074506,434,T
2022-12-02T18:51:24Z,zy448n7y,serial-reaction-time,1,P,2,1,80,4132,0,2,523.7000000029802,342,H
2022-12-02T18:51:29Z,zy448n7y,html-keyboard-response,NA,NA,NA,NA,NA,NA,NA,NA,NA,NA,NA
2022-12-02T18:51:30Z,zy448n7y,html-keyboard-response,NA,NA,NA,NA,NA,NA,NA,NA,NA,NA,NA
2022-12-02T18:51:32Z,zy448n7y,serial-reaction-time,1,R,3,1,1,4132,0,2,401.3999999985099,2,X
2022-12-02T18:51:32Z,zy448n7y,serial-reaction-time,1,P,3,1,2,4132,0,4,527.3000000007451,24,X
2022-12-02T18:51:33Z,zy448n7y,serial-reaction-time,1,R,3,1,3,4132,0,2,566.0999999977648,242,T
2022-12-02T18:51:33Z,zy448n7y,serial-reaction-time,1,P,3,1,4,4132,0,1,407.6000000014901,421,H
2022-12-02T18:51:34Z,zy448n7y,serial-reaction-time,1,R,3,1,5,4132,0,4,548.6999999992549,214,H
2022-12-02T18:51:35Z,zy448n7y,serial-reaction-time,1,P,3,1,6,4132,0,3,374.30000000074506,143,H
2022-12-02T18:51:35Z,zy448n7y,serial-reaction-time,1,R,3,1,7,4132,0,4,390.5999999977648,434,T
2022-12-02T18:51:36Z,zy448n7y,serial-reaction-time,1,P,3,1,8,4132,0,2,430.30000000074506,342,H
2022-12-02T18:51:36Z,zy448n7y,serial-reaction-time,1,R,3,1,9,4132,0,4,384.80000000074506,424,T
2022-12-02T18:51:37Z,zy448n7y,serial-reaction-time,1,P,3,1,10,4132,0,4,310.4000000022352,244,H
2022-12-02T18:51:37Z,zy448n7y,serial-reaction-time,1,R,3,1,11,4132,0,3,345.69999999925494,443,L
2022-12-02T18:51:38Z,zy448n7y,serial-reaction-time,1,P,3,1,12,4132,0,1,490.19999999925494,431,H
2022-12-02T18:51:38Z,zy448n7y,serial-reaction-time,1,R,3,1,13,4132,0,1,279.4000000022352,311,L
2022-12-02T18:51:39Z,zy448n7y,serial-reaction-time,NA,P,3,1,14,4132,0,3,222.10000000149012,113,H
2022-12-02T18:51:39Z,zy448n7y,serial-reaction-time,1,P,3,0,14,4132,0,3,341.6000000014901,113,H
2022-12-02T18:51:39Z,zy448n7y,serial-reaction-time,1,R,3,1,15,4132,0,3,326.69999999925494,133,H
2022-12-02T18:51:40Z,zy448n7y,serial-reaction-time,1,P,3,1,16,4132,0,2,443.20000000298023,332,H
2022-12-02T18:51:40Z,zy448n7y,serial-reaction-time,1,R,3,1,17,4132,0,3,378.5,323,T
2022-12-02T18:51:41Z,zy448n7y,serial-reaction-time,1,P,3,1,18,4132,0,4,419.8999999985099,234,H
2022-12-02T18:51:41Z,zy448n7y,serial-reaction-time,1,R,3,1,19,4132,0,4,291.5,344,L
2022-12-02T18:51:42Z,zy448n7y,serial-reaction-time,1,P,3,1,20,4132,0,1,427,441,H
2022-12-02T18:51:42Z,zy448n7y,serial-reaction-time,NA,R,3,1,21,4132,0,2,289.1000000014901,412,L
2022-12-02T18:51:43Z,zy448n7y,serial-reaction-time,1,R,3,0,21,4132,0,2,495.4000000022352,412,L
2022-12-02T18:51:43Z,zy448n7y,serial-reaction-time,1,P,3,1,22,4132,0,3,385.8999999985099,123,H
2022-12-02T18:51:44Z,zy448n7y,serial-reaction-time,1,R,3,1,23,4132,0,4,413.30000000074506,234,H
2022-12-02T18:51:44Z,zy448n7y,serial-reaction-time,1,P,3,1,24,4132,0,2,488.19999999925494,342,H
2022-12-02T18:51:45Z,zy448n7y,serial-reaction-time,1,R,3,1,25,4132,0,3,367.69999999925494,423,L
2022-12-02T18:51:46Z,zy448n7y,serial-reaction-time,1,P,3,1,26,4132,0,4,681.8000000007451,234,H
2022-12-02T18:51:46Z,zy448n7y,serial-reaction-time,1,R,3,1,27,4132,0,3,374.8999999985099,343,T
2022-12-02T18:51:47Z,zy448n7y,serial-reaction-time,1,P,3,1,28,4132,0,1,618.3000000007451,431,H
2022-12-02T18:51:47Z,zy448n7y,serial-reaction-time,1,R,3,1,29,4132,0,3,430.29999999701977,313,T
2022-12-02T18:51:48Z,zy448n7y,serial-reaction-time,1,P,3,1,30,4132,0,3,306,133,H
2022-12-02T18:51:48Z,zy448n7y,serial-reaction-time,1,R,3,1,31,4132,0,3,293.19999999925494,333,R
2022-12-02T18:51:49Z,zy448n7y,serial-reaction-time,1,P,3,1,32,4132,0,2,387,332,H
2022-12-02T18:51:49Z,zy448n7y,serial-reaction-time,1,R,3,1,33,4132,0,3,378.1000000014901,323,T
2022-12-02T18:51:50Z,zy448n7y,serial-reaction-time,1,P,3,1,34,4132,0,4,411.3999999985099,234,H
2022-12-02T18:51:51Z,zy448n7y,serial-reaction-time,1,R,3,1,35,4132,0,2,498.19999999925494,342,H
2022-12-02T18:51:51Z,zy448n7y,serial-reaction-time,1,P,3,1,36,4132,0,1,404.1000000014901,421,H
2022-12-02T18:51:52Z,zy448n7y,serial-reaction-time,1,R,3,1,37,4132,0,1,253.69999999925497,211,L
2022-12-02T18:51:52Z,zy448n7y,serial-reaction-time,1,P,3,1,38,4132,0,3,336.69999999925494,113,H
2022-12-02T18:51:53Z,zy448n7y,serial-reaction-time,1,R,3,1,39,4132,0,4,393.80000000074506,134,L
2022-12-02T18:51:53Z,zy448n7y,serial-reaction-time,1,P,3,1,40,4132,0,2,442.19999999925494,342,H
2022-12-02T18:51:54Z,zy448n7y,serial-reaction-time,1,R,3,1,41,4132,0,4,433.5,424,T
2022-12-02T18:51:54Z,zy448n7y,serial-reaction-time,1,P,3,1,42,4132,0,4,332.5,244,H
2022-12-02T18:51:55Z,zy448n7y,serial-reaction-time,1,R,3,1,43,4132,0,4,353.80000000074506,444,R
2022-12-02T18:51:55Z,zy448n7y,serial-reaction-time,1,P,3,1,44,4132,0,1,401.80000000074506,441,H
2022-12-02T18:51:56Z,zy448n7y,serial-reaction-time,NA,R,3,1,45,4132,0,4,399.69999999925494,414,T
2022-12-02T18:51:56Z,zy448n7y,serial-reaction-time,1,R,3,0,45,4132,0,4,732.1999999992549,414,T
2022-12-02T18:51:57Z,zy448n7y,serial-reaction-time,1,P,3,1,46,4132,0,3,419.79999999701977,143,H
2022-12-02T18:51:58Z,zy448n7y,serial-reaction-time,1,R,3,1,47,4132,0,1,705.5999999977648,431,H
2022-12-02T18:51:58Z,zy448n7y,serial-reaction-time,1,P,3,1,48,4132,0,2,417.0999999977648,312,H
2022-12-02T18:51:59Z,zy448n7y,serial-reaction-time,1,R,3,1,49,4132,0,4,463.80000000074506,124,L
2022-12-02T18:51:59Z,zy448n7y,serial-reaction-time,1,P,3,1,50,4132,0,4,336.8999999985099,244,H
2022-12-02T18:52:00Z,zy448n7y,serial-reaction-time,1,R,3,1,51,4132,0,3,439.30000000074506,443,L
2022-12-02T18:52:00Z,zy448n7y,serial-reaction-time,1,P,3,1,52,4132,0,1,417.4000000022352,431,H
2022-12-02T18:52:01Z,zy448n7y,serial-reaction-time,1,R,3,1,53,4132,0,4,496.6000000014901,314,L
2022-12-02T18:52:01Z,zy448n7y,serial-reaction-time,NA,P,3,1,54,4132,0,3,255.80000000074503,143,H
2022-12-02T18:52:02Z,zy448n7y,serial-reaction-time,1,P,3,0,54,4132,0,3,476.30000000074506,143,H
2022-12-02T18:52:02Z,zy448n7y,serial-reaction-time,1,R,3,1,55,4132,0,3,309.70000000298023,433,L
2022-12-02T18:52:03Z,zy448n7y,serial-reaction-time,1,P,3,1,56,4132,0,2,420.0999999977648,332,H
2022-12-02T18:52:03Z,zy448n7y,serial-reaction-time,1,R,3,1,57,4132,0,1,440.0999999977648,321,L
2022-12-02T18:52:04Z,zy448n7y,serial-reaction-time,1,P,3,1,58,4132,0,4,519.6999999992549,214,H
2022-12-02T18:52:04Z,zy448n7y,serial-reaction-time,1,R,3,1,59,4132,0,1,548.8999999985099,141,T
2022-12-02T18:52:05Z,zy448n7y,serial-reaction-time,1,P,3,1,60,4132,0,1,279.4000000022352,411,H
2022-12-02T18:52:05Z,zy448n7y,serial-reaction-time,1,R,3,1,61,4132,0,3,449.19999999925494,113,H
2022-12-02T18:52:06Z,zy448n7y,serial-reaction-time,1,P,3,1,62,4132,0,3,229.60000000149012,133,H
2022-12-02T18:52:06Z,zy448n7y,serial-reaction-time,1,R,3,1,63,4132,0,3,323.0999999977648,333,R
2022-12-02T18:52:07Z,zy448n7y,serial-reaction-time,1,P,3,1,64,4132,0,2,689.5,332,H
2022-12-02T18:52:08Z,zy448n7y,serial-reaction-time,1,R,3,1,65,4132,0,1,462.0999999977648,321,L
2022-12-02T18:52:09Z,zy448n7y,serial-reaction-time,1,P,3,1,66,4132,0,4,646,214,H
2022-12-02T18:52:10Z,zy448n7y,serial-reaction-time,1,R,3,1,67,4132,0,2,1206.699999999255,142,L
2022-12-02T18:52:11Z,zy448n7y,serial-reaction-time,1,P,3,1,68,4132,0,1,533.4000000022352,421,H
2022-12-02T18:52:11Z,zy448n7y,serial-reaction-time,1,R,3,1,69,4132,0,2,591.6000000014901,212,T
2022-12-02T18:52:12Z,zy448n7y,serial-reaction-time,1,P,3,1,70,4132,0,3,453.19999999925494,123,H
2022-12-02T18:52:12Z,zy448n7y,serial-reaction-time,1,R,3,1,71,4132,0,3,323.19999999925494,233,L
2022-12-02T18:52:13Z,zy448n7y,serial-reaction-time,1,P,3,1,72,4132,0,2,524.4000000022352,332,H
2022-12-02T18:52:13Z,zy448n7y,serial-reaction-time,1,R,3,1,73,4132,0,2,235.59999999776483,322,H
2022-12-02T18:52:14Z,zy448n7y,serial-reaction-time,1,P,3,1,74,4132,0,4,399.69999999925494,224,H
2022-12-02T18:52:15Z,zy448n7y,serial-reaction-time,1,R,3,1,75,4132,0,1,477.4000000022352,241,L
