datetime,id,trial_type,correct,p_or_r,block,first_response,trial_number,sequence,is_practice,correct_pos,cumulative_rt,actual_triplet,triplet_type
2022-12-05T22:24:00Z,twjbvnlp,fullscreen,NA,NA,NA,NA,NA,NA,NA,NA,NA,NA,NA
2022-12-05T22:24:02Z,twjbvnlp,html-keyboard-response,NA,NA,NA,NA,NA,NA,NA,NA,NA,NA,NA
2022-12-05T22:24:04Z,twjbvnlp,serial-reaction-time,1,R,1,1,1,4231,0,1,311.19999980926514,1,X
2022-12-05T22:24:04Z,twjbvnlp,serial-reaction-time,1,P,1,1,2,4231,0,4,307.90000009536743,14,X
2022-12-05T22:24:05Z,twjbvnlp,serial-reaction-time,1,R,1,1,3,4231,0,1,393,141,T
2022-12-05T22:24:05Z,twjbvnlp,serial-reaction-time,1,P,1,1,4,4231,0,2,376.30000019073486,412,H
2022-12-05T22:24:06Z,twjbvnlp,serial-reaction-time,1,R,1,1,5,4231,0,1,389.3999996185303,121,T
2022-12-05T22:24:06Z,twjbvnlp,serial-reaction-time,1,P,1,1,6,4231,0,3,339.5,213,H
2022-12-05T22:24:07Z,twjbvnlp,serial-reaction-time,1,R,1,1,7,4231,0,2,376.90000009536743,132,L
2022-12-05T22:24:07Z,twjbvnlp,serial-reaction-time,1,P,1,1,8,4231,0,1,364.19999980926514,321,H
2022-12-05T22:24:08Z,twjbvnlp,serial-reaction-time,1,R,1,1,9,4231,0,2,348.09999990463257,212,T
2022-12-05T22:24:08Z,twjbvnlp,serial-reaction-time,1,P,1,1,10,4231,0,4,345.40000009536743,124,H
2022-12-05T22:24:09Z,twjbvnlp,serial-reaction-time,1,R,1,1,11,4231,0,4,305.09999990463257,244,L
2022-12-05T22:24:09Z,twjbvnlp,serial-reaction-time,1,P,1,1,12,4231,0,2,337.59999990463257,442,H
2022-12-05T22:24:10Z,twjbvnlp,serial-reaction-time,1,R,1,1,13,4231,0,3,315.5,423,L
2022-12-05T22:24:10Z,twjbvnlp,serial-reaction-time,1,P,1,1,14,4231,0,3,301.6000003814697,233,H
2022-12-05T22:24:10Z,twjbvnlp,serial-reaction-time,1,R,1,1,15,4231,0,4,292.40000009536743,334,L
2022-12-05T22:24:11Z,twjbvnlp,serial-reaction-time,1,P,1,1,16,4231,0,1,343.90000009536743,341,H
2022-12-05T22:24:11Z,twjbvnlp,serial-reaction-time,1,R,1,1,17,4231,0,2,384.2000002861023,412,H
2022-12-05T22:24:12Z,twjbvnlp,serial-reaction-time,1,P,1,1,18,4231,0,4,320.09999990463257,124,H
2022-12-05T22:24:12Z,twjbvnlp,serial-reaction-time,1,R,1,1,19,4231,0,2,338,242,T
2022-12-05T22:24:13Z,twjbvnlp,serial-reaction-time,1,P,1,1,20,4231,0,2,252.10000038146973,422,H
2022-12-05T22:24:13Z,twjbvnlp,serial-reaction-time,1,R,1,1,21,4231,0,2,273.8999996185303,222,R
2022-12-05T22:24:14Z,twjbvnlp,serial-reaction-time,NA,P,1,1,22,4231,0,3,341.80000019073486,223,H
2022-12-05T22:24:14Z,twjbvnlp,serial-reaction-time,1,P,1,0,22,4231,0,3,397.7000002861023,223,H
2022-12-05T22:24:14Z,twjbvnlp,serial-reaction-time,1,R,1,1,23,4231,0,1,377.5,231,L
2022-12-05T22:24:15Z,twjbvnlp,serial-reaction-time,1,P,1,1,24,4231,0,1,314.80000019073486,311,H
2022-12-05T22:24:15Z,twjbvnlp,serial-reaction-time,1,R,1,1,25,4231,0,3,320,113,L
2022-12-05T22:24:16Z,twjbvnlp,serial-reaction-time,1,P,1,1,26,4231,0,4,282.30000019073486,134,H
2022-12-05T22:24:16Z,twjbvnlp,serial-reaction-time,1,R,1,1,27,4231,0,3,508.09999990463257,343,T
2022-12-05T22:24:17Z,twjbvnlp,serial-reaction-time,1,P,1,1,28,4231,0,2,294.40000009536743,432,H
2022-12-05T22:24:17Z,twjbvnlp,serial-reaction-time,1,R,1,1,29,4231,0,3,329.09999990463257,323,T
2022-12-05T22:24:18Z,twjbvnlp,serial-reaction-time,1,P,1,1,30,4231,0,3,289.7000002861023,233,H
2022-12-05T22:24:18Z,twjbvnlp,serial-reaction-time,1,R,1,1,31,4231,0,1,298.09999990463257,331,H
2022-12-05T22:24:18Z,twjbvnlp,serial-reaction-time,1,P,1,1,32,4231,0,1,292.59999990463257,311,H
2022-12-05T22:24:19Z,twjbvnlp,serial-reaction-time,1,R,1,1,33,4231,0,4,320,114,H
2022-12-05T22:24:19Z,twjbvnlp,serial-reaction-time,1,P,1,1,34,4231,0,4,328.19999980926514,144,H
2022-12-05T22:24:20Z,twjbvnlp,serial-reaction-time,1,R,1,1,35,4231,0,3,338.7000002861023,443,L
2022-12-05T22:24:20Z,twjbvnlp,serial-reaction-time,1,P,1,1,36,4231,0,2,323.59999990463257,432,H
2022-12-05T22:24:21Z,twjbvnlp,serial-reaction-time,1,R,1,1,37,4231,0,4,327.19999980926514,324,L
2022-12-05T22:24:21Z,twjbvnlp,serial-reaction-time,1,P,1,1,38,4231,0,3,303.69999980926514,243,H
2022-12-05T22:24:22Z,twjbvnlp,serial-reaction-time,1,R,1,1,39,4231,0,3,318.7000002861023,433,L
2022-12-05T22:24:22Z,twjbvnlp,serial-reaction-time,1,P,1,1,40,4231,0,1,298.90000009536743,331,H
2022-12-05T22:24:23Z,twjbvnlp,serial-reaction-time,1,R,1,1,41,4231,0,2,416.7000002861023,312,L
2022-12-05T22:24:23Z,twjbvnlp,serial-reaction-time,1,P,1,1,42,4231,0,4,259.40000009536743,124,H
2022-12-05T22:24:23Z,twjbvnlp,serial-reaction-time,1,R,1,1,43,4231,0,1,336.59999990463257,241,L
2022-12-05T22:24:24Z,twjbvnlp,serial-reaction-time,1,P,1,1,44,4231,0,2,397.5,412,H
2022-12-05T22:24:24Z,twjbvnlp,serial-reaction-time,1,R,1,1,45,4231,0,1,353.30000019073486,121,T
2022-12-05T22:24:25Z,twjbvnlp,serial-reaction-time,1,P,1,1,46,4231,0,3,313.30000019073486,213,H
2022-12-05T22:24:25Z,twjbvnlp,serial-reaction-time,1,R,1,1,47,4231,0,1,338.09999990463257,131,T
2022-12-05T22:24:26Z,twjbvnlp,serial-reaction-time,1,P,1,1,48,4231,0,1,278.5,311,H
2022-12-05T22:24:26Z,twjbvnlp,serial-reaction-time,1,R,1,1,49,4231,0,4,325.7000002861023,114,H
2022-12-05T22:24:27Z,twjbvnlp,serial-reaction-time,1,P,1,1,50,4231,0,4,290.40000009536743,144,H
2022-12-05T22:24:27Z,twjbvnlp,serial-reaction-time,1,R,1,1,51,4231,0,1,365.7999997138977,441,L
2022-12-05T22:24:28Z,twjbvnlp,serial-reaction-time,1,P,1,1,52,4231,0,2,435.30000019073486,412,H
2022-12-05T22:24:28Z,twjbvnlp,serial-reaction-time,1,R,1,1,53,4231,0,4,294.90000009536743,124,H
2022-12-05T22:24:29Z,twjbvnlp,serial-reaction-time,1,P,1,1,54,4231,0,3,328.30000019073486,243,H
2022-12-05T22:24:29Z,twjbvnlp,serial-reaction-time,1,R,1,1,55,4231,0,3,309.80000019073486,433,L
2022-12-05T22:24:30Z,twjbvnlp,serial-reaction-time,1,P,1,1,56,4231,0,1,498.30000019073486,331,H
2022-12-05T22:24:30Z,twjbvnlp,serial-reaction-time,1,R,1,1,57,4231,0,3,342.09999990463257,313,T
2022-12-05T22:24:31Z,twjbvnlp,serial-reaction-time,1,P,1,1,58,4231,0,4,283.5,134,H
2022-12-05T22:24:31Z,twjbvnlp,serial-reaction-time,NA,R,1,1,59,4231,0,4,340.2999997138977,344,L
2022-12-05T22:24:31Z,twjbvnlp,serial-reaction-time,1,R,1,0,59,4231,0,4,419.5999994277954,344,L
2022-12-05T22:24:32Z,twjbvnlp,serial-reaction-time,1,P,1,1,60,4231,0,2,366.2999997138977,442,H
2022-12-05T22:24:32Z,twjbvnlp,serial-reaction-time,1,R,1,1,61,4231,0,1,312.7999997138977,421,L
2022-12-05T22:24:33Z,twjbvnlp,serial-reaction-time,1,P,1,1,62,4231,0,3,345.2999997138977,213,H
2022-12-05T22:24:33Z,twjbvnlp,serial-reaction-time,1,R,1,1,63,4231,0,4,313.90000009536743,134,H
2022-12-05T22:24:33Z,twjbvnlp,serial-reaction-time,1,P,1,1,64,4231,0,1,321.7999997138977,341,H
2022-12-05T22:24:34Z,twjbvnlp,serial-reaction-time,1,R,1,1,65,4231,0,3,314.69999980926514,413,L
2022-12-05T22:24:34Z,twjbvnlp,serial-reaction-time,1,P,1,1,66,4231,0,4,267,134,H
2022-12-05T22:24:35Z,twjbvnlp,serial-reaction-time,1,R,1,1,67,4231,0,3,321.69999980926514,343,T
2022-12-05T22:24:35Z,twjbvnlp,serial-reaction-time,1,P,1,1,68,4231,0,2,306.09999990463257,432,H
2022-12-05T22:24:36Z,twjbvnlp,serial-reaction-time,1,R,1,1,69,4231,0,2,276.1000003814697,322,L
2022-12-05T22:24:36Z,twjbvnlp,serial-reaction-time,1,P,1,1,70,4231,0,3,317,223,H
2022-12-05T22:24:37Z,twjbvnlp,serial-reaction-time,1,R,1,1,71,4231,0,1,306.5,231,L
2022-12-05T22:24:37Z,twjbvnlp,serial-reaction-time,1,P,1,1,72,4231,0,1,373.90000009536743,311,H
2022-12-05T22:24:37Z,twjbvnlp,serial-reaction-time,1,R,1,1,73,4231,0,4,286.7000002861023,114,H
2022-12-05T22:24:38Z,twjbvnlp,serial-reaction-time,1,P,1,1,74,4231,0,4,287.59999990463257,144,H
2022-12-05T22:24:38Z,twjbvnlp,serial-reaction-time,1,R,1,1,75,4231,0,4,307.1000003814697,444,R
2022-12-05T22:24:39Z,twjbvnlp,serial-reaction-time,1,P,1,1,76,4231,0,2,372.90000009536743,442,H
2022-12-05T22:24:39Z,twjbvnlp,serial-reaction-time,1,R,1,1,77,4231,0,1,361.7000002861023,421,L
2022-12-05T22:24:40Z,twjbvnlp,serial-reaction-time,1,P,1,1,78,4231,0,3,328.59999990463257,213,H
2022-12-05T22:24:40Z,twjbvnlp,serial-reaction-time,NA,R,1,1,79,4231,0,2,359.90000009536743,132,L
2022-12-05T22:24:40Z,twjbvnlp,serial-reaction-time,1,R,1,0,79,4231,0,2,563.8000001907349,132,L
2022-12-05T22:24:41Z,twjbvnlp,serial-reaction-time,1,P,1,1,80,4231,0,1,373.90000009536743,321,H
2022-12-05T22:24:46Z,twjbvnlp,html-keyboard-response,NA,NA,NA,NA,NA,NA,NA,NA,NA,NA,NA
2022-12-05T22:24:49Z,twjbvnlp,html-keyboard-response,NA,NA,NA,NA,NA,NA,NA,NA,NA,NA,NA
2022-12-05T22:24:51Z,twjbvnlp,serial-reaction-time,1,R,2,1,1,4231,0,4,305.59999990463257,4,X
2022-12-05T22:24:51Z,twjbvnlp,serial-reaction-time,1,P,2,1,2,4231,0,4,238.7000002861023,44,X
2022-12-05T22:24:52Z,twjbvnlp,serial-reaction-time,1,R,2,1,3,4231,0,2,299.1000003814697,442,H
2022-12-05T22:24:52Z,twjbvnlp,serial-reaction-time,1,P,2,1,4,4231,0,2,254.40000009536743,422,H
2022-12-05T22:24:52Z,twjbvnlp,serial-reaction-time,1,R,2,1,5,4231,0,2,280.30000019073486,222,R
2022-12-05T22:24:53Z,twjbvnlp,serial-reaction-time,1,P,2,1,6,4231,0,3,311.90000009536743,223,H
2022-12-05T22:24:53Z,twjbvnlp,serial-reaction-time,1,R,2,1,7,4231,0,1,320.19999980926514,231,L
2022-12-05T22:24:54Z,twjbvnlp,serial-reaction-time,1,P,2,1,8,4231,0,1,275.90000009536743,311,H
2022-12-05T22:24:54Z,twjbvnlp,serial-reaction-time,1,R,2,1,9,4231,0,2,505,112,L
2022-12-05T22:24:55Z,twjbvnlp,serial-reaction-time,1,P,2,1,10,4231,0,4,323.2999997138977,124,H
2022-12-05T22:24:55Z,twjbvnlp,serial-reaction-time,1,R,2,1,11,4231,0,4,233.89999961853027,244,L
2022-12-05T22:24:55Z,twjbvnlp,serial-reaction-time,1,P,2,1,12,4231,0,2,283.30000019073486,442,H
2022-12-05T22:24:56Z,twjbvnlp,serial-reaction-time,1,R,2,1,13,4231,0,2,242.6999998092651,422,H
2022-12-05T22:24:56Z,twjbvnlp,serial-reaction-time,1,P,2,1,14,4231,0,3,331.5,223,H
2022-12-05T22:24:57Z,twjbvnlp,serial-reaction-time,1,R,2,1,15,4231,0,2,325.40000009536743,232,T
2022-12-05T22:24:57Z,twjbvnlp,serial-reaction-time,1,P,2,1,16,4231,0,1,333.30000019073486,321,H
2022-12-05T22:24:58Z,twjbvnlp,serial-reaction-time,1,R,2,1,17,4231,0,1,255.2999997138977,211,L
2022-12-05T22:24:58Z,twjbvnlp,serial-reaction-time,1,P,2,1,18,4231,0,4,266.19999980926514,114,H
2022-12-05T22:24:58Z,twjbvnlp,serial-reaction-time,1,R,2,1,19,4231,0,1,333.59999990463257,141,T
2022-12-05T22:24:59Z,twjbvnlp,serial-reaction-time,1,P,2,1,20,4231,0,2,377.30000019073486,412,H
2022-12-05T22:24:59Z,twjbvnlp,serial-reaction-time,1,R,2,1,21,4231,0,4,294.5,124,H
2022-12-05T22:25:00Z,twjbvnlp,serial-reaction-time,1,P,2,1,22,4231,0,3,321.80000019073486,243,H
2022-12-05T22:25:00Z,twjbvnlp,serial-reaction-time,1,R,2,1,23,4231,0,1,291.2000002861023,431,L
2022-12-05T22:25:01Z,twjbvnlp,serial-reaction-time,1,P,2,1,24,4231,0,1,251.40000009536743,311,H
2022-12-05T22:25:01Z,twjbvnlp,serial-reaction-time,1,R,2,1,25,4231,0,1,254.7999997138977,111,R
2022-12-05T22:25:01Z,twjbvnlp,serial-reaction-time,1,P,2,1,26,4231,0,4,279.5,114,H
2022-12-05T22:25:02Z,twjbvnlp,serial-reaction-time,NA,R,2,1,27,4231,0,1,356.2000002861023,141,T
2022-12-05T22:25:02Z,twjbvnlp,serial-reaction-time,1,R,2,0,27,4231,0,1,601.7000002861023,141,T
2022-12-05T22:25:03Z,twjbvnlp,serial-reaction-time,1,P,2,1,28,4231,0,2,399.69999980926514,412,H
2022-12-05T22:25:03Z,twjbvnlp,serial-reaction-time,1,R,2,1,29,4231,0,4,329,124,H
2022-12-05T22:25:04Z,twjbvnlp,serial-reaction-time,1,P,2,1,30,4231,0,3,334.3999996185303,243,H
2022-12-05T22:25:04Z,twjbvnlp,serial-reaction-time,1,R,2,1,31,4231,0,2,371.69999980926514,432,H
2022-12-05T22:25:05Z,twjbvnlp,serial-reaction-time,1,P,2,1,32,4231,0,1,489.80000019073486,321,H
2022-12-05T22:25:05Z,twjbvnlp,serial-reaction-time,1,R,2,1,33,4231,0,4,303.5,214,L
2022-12-05T22:25:06Z,twjbvnlp,serial-reaction-time,1,P,2,1,34,4231,0,4,262.59999990463257,144,H
2022-12-05T22:25:06Z,twjbvnlp,serial-reaction-time,1,R,2,1,35,4231,0,4,216.7999997138977,444,R
2022-12-05T22:25:06Z,twjbvnlp,serial-reaction-time,NA,P,2,1,36,4231,0,2,308.69999980926514,442,H
2022-12-05T22:25:07Z,twjbvnlp,serial-reaction-time,1,P,2,0,36,4231,0,2,538.5,442,H
2022-12-05T22:25:07Z,twjbvnlp,serial-reaction-time,NA,R,2,1,37,4231,0,1,348.90000009536743,421,L
2022-12-05T22:25:07Z,twjbvnlp,serial-reaction-time,1,R,2,0,37,4231,0,1,467.30000019073486,421,L
2022-12-05T22:25:08Z,twjbvnlp,serial-reaction-time,1,P,2,1,38,4231,0,3,405.90000009536743,213,H
2022-12-05T22:25:08Z,twjbvnlp,serial-reaction-time,1,R,2,1,39,4231,0,4,287.19999980926514,134,H
2022-12-05T22:25:09Z,twjbvnlp,serial-reaction-time,1,P,2,1,40,4231,0,1,354.5,341,H
2022-12-05T22:25:09Z,twjbvnlp,serial-reaction-time,1,R,2,1,41,4231,0,1,259.5,411,L
2022-12-05T22:25:09Z,twjbvnlp,serial-reaction-time,1,P,2,1,42,4231,0,4,335,114,H
2022-12-05T22:25:10Z,twjbvnlp,serial-reaction-time,1,R,2,1,43,4231,0,2,384.5,142,L
2022-12-05T22:25:10Z,twjbvnlp,serial-reaction-time,1,P,2,1,44,4231,0,2,271.5,422,H
2022-12-05T22:25:11Z,twjbvnlp,serial-reaction-time,1,R,2,1,45,4231,0,3,384.59999990463257,223,H
2022-12-05T22:25:11Z,twjbvnlp,serial-reaction-time,1,P,2,1,46,4231,0,3,281,233,H
2022-12-05T22:25:12Z,twjbvnlp,serial-reaction-time,1,R,2,1,47,4231,0,3,282.09999990463257,333,R
2022-12-05T22:25:12Z,twjbvnlp,serial-reaction-time,1,P,2,1,48,4231,0,1,291.1000003814697,331,H
2022-12-05T22:25:13Z,twjbvnlp,serial-reaction-time,1,R,2,1,49,4231,0,1,254.60000038146973,311,H
2022-12-05T22:25:13Z,twjbvnlp,serial-reaction-time,1,P,2,1,50,4231,0,4,293.90000009536743,114,H
2022-12-05T22:25:13Z,twjbvnlp,serial-reaction-time,1,R,2,1,51,4231,0,4,233.5,144,H
2022-12-05T22:25:14Z,twjbvnlp,serial-reaction-time,1,P,2,1,52,4231,0,2,329.19999980926514,442,H
2022-12-05T22:25:14Z,twjbvnlp,serial-reaction-time,1,R,2,1,53,4231,0,3,321.09999990463257,423,L
2022-12-05T22:25:15Z,twjbvnlp,serial-reaction-time,1,P,2,1,54,4231,0,3,254.2999997138977,233,H
2022-12-05T22:25:15Z,twjbvnlp,serial-reaction-time,NA,R,2,1,55,4231,0,2,309.5,332,L
2022-12-05T22:25:15Z,twjbvnlp,serial-reaction-time,1,R,2,0,55,4231,0,2,526.5999999046326,332,L
2022-12-05T22:25:16Z,twjbvnlp,serial-reaction-time,1,P,2,1,56,4231,0,1,378.7999997138977,321,H
2022-12-05T22:25:16Z,twjbvnlp,serial-reaction-time,NA,R,2,1,57,4231,0,2,332,212,T
2022-12-05T22:25:16Z,twjbvnlp,serial-reaction-time,1,R,2,0,57,4231,0,2,562.5,212,T
2022-12-05T22:25:17Z,twjbvnlp,serial-reaction-time,1,P,2,1,58,4231,0,4,303.1000003814697,124,H
2022-12-05T22:25:17Z,twjbvnlp,serial-reaction-time,1,R,2,1,59,4231,0,1,362.8999996185303,241,L
2022-12-05T22:25:18Z,twjbvnlp,serial-reaction-time,1,P,2,1,60,4231,0,2,425.7999997138977,412,H
2022-12-05T22:25:18Z,twjbvnlp,serial-reaction-time,1,R,2,1,61,4231,0,1,373.30000019073486,121,T
2022-12-05T22:25:19Z,twjbvnlp,serial-reaction-time,1,P,2,1,62,4231,0,3,371.09999990463257,213,H
2022-12-05T22:25:20Z,twjbvnlp,serial-reaction-time,NA,R,2,1,63,4231,0,2,386.80000019073486,132,L
2022-12-05T22:25:20Z,twjbvnlp,serial-reaction-time,1,R,2,0,63,4231,0,2,496.1000003814697,132,L
2022-12-05T22:25:20Z,twjbvnlp,serial-reaction-time,1,P,2,1,64,4231,0,1,504,321,H
2022-12-05T22:25:21Z,twjbvnlp,serial-reaction-time,1,R,2,1,65,4231,0,2,429.90000009536743,212,T
2022-12-05T22:25:21Z,twjbvnlp,serial-reaction-time,1,P,2,1,66,4231,0,4,333.30000019073486,124,H
2022-12-05T22:25:22Z,twjbvnlp,serial-reaction-time,1,R,2,1,67,4231,0,1,344.59999990463257,241,L
2022-12-05T22:25:22Z,twjbvnlp,serial-reaction-time,1,P,2,1,68,4231,0,2,332.7000002861023,412,H
2022-12-05T22:25:23Z,twjbvnlp,serial-reaction-time,1,R,2,1,69,4231,0,4,361.3999996185303,124,H
2022-12-05T22:25:23Z,twjbvnlp,serial-reaction-time,1,P,2,1,70,4231,0,3,337.09999990463257,243,H
2022-12-05T22:25:24Z,twjbvnlp,serial-reaction-time,1,R,2,1,71,4231,0,1,378.69999980926514,431,L
2022-12-05T22:25:24Z,twjbvnlp,serial-reaction-time,1,P,2,1,72,4231,0,1,337.69999980926514,311,H
2022-12-05T22:25:25Z,twjbvnlp,serial-reaction-time,1,R,2,1,73,4231,0,1,345.30000019073486,111,R
2022-12-05T22:25:25Z,twjbvnlp,serial-reaction-time,1,P,2,1,74,4231,0,4,290.59999990463257,114,H
2022-12-05T22:25:25Z,twjbvnlp,serial-reaction-time,1,R,2,1,75,4231,0,4,300,144,H
2022-12-05T22:25:26Z,twjbvnlp,serial-reaction-time,1,P,2,1,76,4231,0,2,336.2000002861023,442,H
2022-12-05T22:25:27Z,twjbvnlp,serial-reaction-time,1,R,2,1,77,4231,0,4,437.40000009536743,424,T
2022-12-05T22:25:27Z,twjbvnlp,serial-reaction-time,1,P,2,1,78,4231,0,3,337.59999990463257,243,H
2022-12-05T22:25:27Z,twjbvnlp,serial-reaction-time,1,R,2,1,79,4231,0,1,345.2000002861023,431,L
2022-12-05T22:25:28Z,twjbvnlp,serial-reaction-time,1,P,2,1,80,4231,0,1,275.59999990463257,311,H
2022-12-05T22:25:33Z,twjbvnlp,html-keyboard-response,NA,NA,NA,NA,NA,NA,NA,NA,NA,NA,NA
2022-12-05T22:25:35Z,twjbvnlp,html-keyboard-response,NA,NA,NA,NA,NA,NA,NA,NA,NA,NA,NA
2022-12-05T22:25:37Z,twjbvnlp,serial-reaction-time,1,R,3,1,1,4231,0,4,279.19999980926514,4,X
2022-12-05T22:25:37Z,twjbvnlp,serial-reaction-time,1,P,3,1,2,4231,0,4,267.09999990463257,44,X
2022-12-05T22:25:37Z,twjbvnlp,serial-reaction-time,1,R,3,1,3,4231,0,3,308.69999980926514,443,L
2022-12-05T22:25:38Z,twjbvnlp,serial-reaction-time,1,P,3,1,4,4231,0,2,305.7999997138977,432,H
2022-12-05T22:25:38Z,twjbvnlp,serial-reaction-time,1,R,3,1,5,4231,0,2,222.8000001907349,322,L
2022-12-05T22:25:39Z,twjbvnlp,serial-reaction-time,1,P,3,1,6,4231,0,3,292.2999997138977,223,H
2022-12-05T22:25:39Z,twjbvnlp,serial-reaction-time,1,R,3,1,7,4231,0,1,330,231,L
2022-12-05T22:25:40Z,twjbvnlp,serial-reaction-time,1,P,3,1,8,4231,0,1,294.30000019073486,311,H
2022-12-05T22:25:40Z,twjbvnlp,serial-reaction-time,1,R,3,1,9,4231,0,4,267.40000009536743,114,H
2022-12-05T22:25:40Z,twjbvnlp,serial-reaction-time,1,P,3,1,10,4231,0,4,317.5,144,H
2022-12-05T22:25:41Z,twjbvnlp,serial-reaction-time,1,R,3,1,11,4231,0,1,313.69999980926514,441,L
2022-12-05T22:25:41Z,twjbvnlp,serial-reaction-time,1,P,3,1,12,4231,0,2,330.40000009536743,412,H
2022-12-05T22:25:42Z,twjbvnlp,serial-reaction-time,1,R,3,1,13,4231,0,1,404.3999996185303,121,T
2022-12-05T22:25:42Z,twjbvnlp,serial-reaction-time,1,P,3,1,14,4231,0,3,310.1000003814697,213,H
2022-12-05T22:25:43Z,twjbvnlp,serial-reaction-time,1,R,3,1,15,4231,0,4,283.69999980926514,134,H
2022-12-05T22:25:43Z,twjbvnlp,serial-reaction-time,1,P,3,1,16,4231,0,1,288.59999990463257,341,H
2022-12-05T22:25:43Z,twjbvnlp,serial-reaction-time,1,R,3,1,17,4231,0,1,282.5,411,L
2022-12-05T22:25:44Z,twjbvnlp,serial-reaction-time,1,P,3,1,18,4231,0,4,296.5,114,H
2022-12-05T22:25:44Z,twjbvnlp,serial-reaction-time,1,R,3,1,19,4231,0,4,241.7000002861023,144,H
2022-12-05T22:25:45Z,twjbvnlp,serial-reaction-time,1,P,3,1,20,4231,0,2,302.40000009536743,442,H
2022-12-05T22:25:45Z,twjbvnlp,serial-reaction-time,1,R,3,1,21,4231,0,3,294,423,L
2022-12-05T22:25:46Z,twjbvnlp,serial-reaction-time,1,P,3,1,22,4231,0,3,251.40000009536743,233,H
2022-12-05T22:25:46Z,twjbvnlp,serial-reaction-time,1,R,3,1,23,4231,0,3,296.5,333,R
2022-12-05T22:25:46Z,twjbvnlp,serial-reaction-time,1,P,3,1,24,4231,0,1,268.80000019073486,331,H
2022-12-05T22:25:47Z,twjbvnlp,serial-reaction-time,NA,R,3,1,25,4231,0,3,317.19999980926514,313,T
2022-12-05T22:25:47Z,twjbvnlp,serial-reaction-time,1,R,3,0,25,4231,0,3,565,313,T
2022-12-05T22:25:47Z,twjbvnlp,serial-reaction-time,1,P,3,1,26,4231,0,4,294.30000019073486,134,H
2022-12-05T22:25:48Z,twjbvnlp,serial-reaction-time,1,R,3,1,27,4231,0,3,419.30000019073486,343,T
2022-12-05T22:25:48Z,twjbvnlp,serial-reaction-time,1,P,3,1,28,4231,0,2,311.30000019073486,432,H
2022-12-05T22:25:49Z,twjbvnlp,serial-reaction-time,NA,R,3,1,29,4231,0,3,364.59999990463257,323,T
2022-12-05T22:25:49Z,twjbvnlp,serial-reaction-time,1,R,3,0,29,4231,0,3,442.3999996185303,323,T
2022-12-05T22:25:50Z,twjbvnlp,serial-reaction-time,1,P,3,1,30,4231,0,3,346.7999997138977,233,H
2022-12-05T22:25:50Z,twjbvnlp,serial-reaction-time,1,R,3,1,31,4231,0,3,294.09999990463257,333,R
2022-12-05T22:25:50Z,twjbvnlp,serial-reaction-time,1,P,3,1,32,4231,0,1,318.69999980926514,331,H
2022-12-05T22:25:51Z,twjbvnlp,serial-reaction-time,1,R,3,1,33,4231,0,2,463.8999996185303,312,L
2022-12-05T22:25:51Z,twjbvnlp,serial-reaction-time,1,P,3,1,34,4231,0,4,302.7000002861023,124,H
2022-12-05T22:25:52Z,twjbvnlp,serial-reaction-time,1,R,3,1,35,4231,0,4,244.2999997138977,244,L
2022-12-05T22:25:52Z,twjbvnlp,serial-reaction-time,1,P,3,1,36,4231,0,2,312.80000019073486,442,H
2022-12-05T22:25:53Z,twjbvnlp,serial-reaction-time,1,R,3,1,37,4231,0,2,286.40000009536743,422,H
2022-12-05T22:25:53Z,twjbvnlp,serial-reaction-time,1,P,3,1,38,4231,0,3,292.90000009536743,223,H
2022-12-05T22:25:54Z,twjbvnlp,serial-reaction-time,1,R,3,1,39,4231,0,4,312.2999997138977,234,L
2022-12-05T22:25:54Z,twjbvnlp,serial-reaction-time,1,P,3,1,40,4231,0,1,309.6000003814697,341,H
2022-12-05T22:25:55Z,twjbvnlp,serial-reaction-time,1,R,3,1,41,4231,0,2,425.40000009536743,412,H
2022-12-05T22:25:55Z,twjbvnlp,serial-reaction-time,1,P,3,1,42,4231,0,4,308.7000002861023,124,H
2022-12-05T22:25:55Z,twjbvnlp,serial-reaction-time,1,R,3,1,43,4231,0,4,387.40000009536743,244,L
2022-12-05T22:25:56Z,twjbvnlp,serial-reaction-time,1,P,3,1,44,4231,0,2,306.30000019073486,442,H
2022-12-05T22:25:56Z,twjbvnlp,serial-reaction-time,1,R,3,1,45,4231,0,4,291.5,424,T
2022-12-05T22:25:57Z,twjbvnlp,serial-reaction-time,1,P,3,1,46,4231,0,3,367,243,H
2022-12-05T22:25:57Z,twjbvnlp,serial-reaction-time,1,R,3,1,47,4231,0,4,308.80000019073486,434,T
2022-12-05T22:25:58Z,twjbvnlp,serial-reaction-time,NA,P,3,1,48,4231,0,1,286.5,341,H
2022-12-05T22:25:58Z,twjbvnlp,serial-reaction-time,1,P,3,0,48,4231,0,1,482.90000009536743,341,H
2022-12-05T22:25:58Z,twjbvnlp,serial-reaction-time,1,R,3,1,49,4231,0,4,350.5,414,T
2022-12-05T22:25:59Z,twjbvnlp,serial-reaction-time,1,P,3,1,50,4231,0,4,292.40000009536743,144,H
2022-12-05T22:25:59Z,twjbvnlp,serial-reaction-time,1,R,3,1,51,4231,0,3,335.6000003814697,443,L
2022-12-05T22:26:00Z,twjbvnlp,serial-reaction-time,1,P,3,1,52,4231,0,2,353.7999997138977,432,H
2022-12-05T22:26:00Z,twjbvnlp,serial-reaction-time,1,R,3,1,53,4231,0,3,387.19999980926514,323,T
2022-12-05T22:26:01Z,twjbvnlp,serial-reaction-time,1,P,3,1,54,4231,0,3,274.90000009536743,233,H
2022-12-05T22:26:01Z,twjbvnlp,serial-reaction-time,1,R,3,1,55,4231,0,1,272.2999997138977,331,H
2022-12-05T22:26:01Z,twjbvnlp,serial-reaction-time,1,P,3,1,56,4231,0,1,300.6000003814697,311,H
2022-12-05T22:26:02Z,twjbvnlp,serial-reaction-time,1,R,3,1,57,4231,0,1,205.1999998092651,111,R
2022-12-05T22:26:02Z,twjbvnlp,serial-reaction-time,1,P,3,1,58,4231,0,4,260.40000009536743,114,H
2022-12-05T22:26:03Z,twjbvnlp,serial-reaction-time,NA,R,3,1,59,4231,0,1,383.19999980926514,141,T
2022-12-05T22:26:03Z,twjbvnlp,serial-reaction-time,1,R,3,0,59,4231,0,1,550,141,T
2022-12-05T22:26:03Z,twjbvnlp,serial-reaction-time,1,P,3,1,60,4231,0,2,407.7999997138977,412,H
2022-12-05T22:26:04Z,twjbvnlp,serial-reaction-time,1,R,3,1,61,4231,0,3,365.30000019073486,123,L
2022-12-05T22:26:04Z,twjbvnlp,serial-reaction-time,1,P,3,1,62,4231,0,3,218.5,233,H
2022-12-05T22:26:05Z,twjbvnlp,serial-reaction-time,NA,R,3,1,63,4231,0,2,304.69999980926514,332,L
2022-12-05T22:26:05Z,twjbvnlp,serial-reaction-time,1,R,3,0,63,4231,0,2,557.1999998092651,332,L
2022-12-05T22:26:05Z,twjbvnlp,serial-reaction-time,1,P,3,1,64,4231,0,1,336.90000009536743,321,H
2022-12-05T22:26:06Z,twjbvnlp,serial-reaction-time,1,R,3,1,65,4231,0,3,354.5,213,H
2022-12-05T22:26:06Z,twjbvnlp,serial-reaction-time,1,P,3,1,66,4231,0,4,421.69999980926514,134,H
2022-12-05T22:26:07Z,twjbvnlp,serial-reaction-time,1,R,3,1,67,4231,0,4,271.7000002861023,344,L
2022-12-05T22:26:07Z,twjbvnlp,serial-reaction-time,1,P,3,1,68,4231,0,2,365.8999996185303,442,H
2022-12-05T22:26:08Z,twjbvnlp,serial-reaction-time,1,R,3,1,69,4231,0,4,316.7999997138977,424,T
2022-12-05T22:26:08Z,twjbvnlp,serial-reaction-time,NA,P,3,1,70,4231,0,3,281.90000009536743,243,H
2022-12-05T22:26:08Z,twjbvnlp,serial-reaction-time,1,P,3,0,70,4231,0,3,523.2999997138977,243,H
2022-12-05T22:26:09Z,twjbvnlp,serial-reaction-time,1,R,3,1,71,4231,0,3,353.2000002861023,433,L
2022-12-05T22:26:09Z,twjbvnlp,serial-reaction-time,1,P,3,1,72,4231,0,1,381.5,331,H
2022-12-05T22:26:10Z,twjbvnlp,serial-reaction-time,1,R,3,1,73,4231,0,3,295.40000009536743,313,T
2022-12-05T22:26:10Z,twjbvnlp,serial-reaction-time,1,P,3,1,74,4231,0,4,334.40000009536743,134,H
2022-12-05T22:26:11Z,twjbvnlp,serial-reaction-time,1,R,3,1,75,4231,0,3,348.40000009536743,343,T
2022-12-05T22:26:11Z,twjbvnlp,serial-reaction-time,1,P,3,1,76,4231,0,2,322.90000009536743,432,H
2022-12-05T22:26:12Z,twjbvnlp,serial-reaction-time,1,R,3,1,77,4231,0,4,341,324,L
2022-12-05T22:26:12Z,twjbvnlp,serial-reaction-time,1,P,3,1,78,4231,0,3,324.09999990463257,243,H
2022-12-05T22:26:13Z,twjbvnlp,serial-reaction-time,1,R,3,1,79,4231,0,1,332.5,431,L
2022-12-05T22:26:13Z,twjbvnlp,serial-reaction-time,1,P,3,1,80,4231,0,1,274.19999980926514,311,H
2022-12-05T22:26:18Z,twjbvnlp,html-keyboard-response,NA,NA,NA,NA,NA,NA,NA,NA,NA,NA,NA
2022-12-05T22:26:20Z,twjbvnlp,html-keyboard-response,NA,NA,NA,NA,NA,NA,NA,NA,NA,NA,NA
2022-12-05T22:26:21Z,twjbvnlp,serial-reaction-time,1,R,4,1,1,4231,0,4,287.5,4,X
2022-12-05T22:26:21Z,twjbvnlp,serial-reaction-time,1,P,4,1,2,4231,0,4,303.19999980926514,44,X
2022-12-05T22:26:22Z,twjbvnlp,serial-reaction-time,1,R,4,1,3,4231,0,1,290.19999980926514,441,L
2022-12-05T22:26:22Z,twjbvnlp,serial-reaction-time,1,P,4,1,4,4231,0,2,423.5,412,H
2022-12-05T22:26:23Z,twjbvnlp,serial-reaction-time,1,R,4,1,5,4231,0,3,270.40000009536743,123,L
2022-12-05T22:26:23Z,twjbvnlp,serial-reaction-time,1,P,4,1,6,4231,0,3,267.5,233,H
2022-12-05T22:26:24Z,twjbvnlp,serial-reaction-time,1,R,4,1,7,4231,0,4,281.2000002861023,334,L
2022-12-05T22:26:24Z,twjbvnlp,serial-reaction-time,1,P,4,1,8,4231,0,1,333.09999990463257,341,H
2022-12-05T22:26:25Z,twjbvnlp,serial-reaction-time,1,R,4,1,9,4231,0,2,448,412,H
2022-12-05T22:26:25Z,twjbvnlp,serial-reaction-time,1,P,4,1,10,4231,0,4,304.6000003814697,124,H
2022-12-05T22:26:25Z,twjbvnlp,serial-reaction-time,1,R,4,1,11,4231,0,3,304.7999997138977,243,H
2022-12-05T22:26:26Z,twjbvnlp,serial-reaction-time,1,P,4,1,12,4231,0,2,293.2999997138977,432,H
2022-12-05T22:26:26Z,twjbvnlp,serial-reaction-time,1,R,4,1,13,4231,0,3,326.59999990463257,323,T
2022-12-05T22:26:27Z,twjbvnlp,serial-reaction-time,1,P,4,1,14,4231,0,3,321,233,H
2022-12-05T22:26:27Z,twjbvnlp,serial-reaction-time,1,R,4,1,15,4231,0,3,289.5,333,R
2022-12-05T22:26:28Z,twjbvnlp,serial-reaction-time,1,P,4,1,16,4231,0,1,316.5,331,H
2022-12-05T22:26:28Z,twjbvnlp,serial-reaction-time,1,R,4,1,17,4231,0,2,372.2999997138977,312,L
2022-12-05T22:26:29Z,twjbvnlp,serial-reaction-time,1,P,4,1,18,4231,0,4,280.80000019073486,124,H
2022-12-05T22:26:29Z,twjbvnlp,serial-reaction-time,1,R,4,1,19,4231,0,1,365.5,241,L
2022-12-05T22:26:30Z,twjbvnlp,serial-reaction-time,1,P,4,1,20,4231,0,2,419.5,412,H
2022-12-05T22:26:30Z,twjbvnlp,serial-reaction-time,1,R,4,1,21,4231,0,1,414.2999997138977,121,T
2022-12-05T22:26:31Z,twjbvnlp,serial-reaction-time,1,P,4,1,22,4231,0,3,286.5,213,H
2022-12-05T22:26:31Z,twjbvnlp,serial-reaction-time,NA,R,4,1,23,4231,0,2,375.2999997138977,132,L
2022-12-05T22:26:31Z,twjbvnlp,serial-reaction-time,1,R,4,0,23,4231,0,2,615.5999999046326,132,L
2022-12-05T22:26:32Z,twjbvnlp,serial-reaction-time,1,P,4,1,24,4231,0,1,353.40000009536743,321,H
2022-12-05T22:26:32Z,twjbvnlp,serial-reaction-time,1,R,4,1,25,4231,0,1,311.19999980926514,211,L
2022-12-05T22:26:33Z,twjbvnlp,serial-reaction-time,1,P,4,1,26,4231,0,4,306.2000002861023,114,H
2022-12-05T22:26:33Z,twjbvnlp,serial-reaction-time,NA,R,4,1,27,4231,0,1,351,141,T
2022-12-05T22:26:33Z,twjbvnlp,serial-reaction-time,1,R,4,0,27,4231,0,1,549.7999997138977,141,T
2022-12-05T22:26:34Z,twjbvnlp,serial-reaction-time,1,P,4,1,28,4231,0,2,412.19999980926514,412,H
2022-12-05T22:26:34Z,twjbvnlp,serial-reaction-time,1,R,4,1,29,4231,0,4,296.5,124,H
2022-12-05T22:26:35Z,twjbvnlp,serial-reaction-time,1,P,4,1,30,4231,0,3,308.3999996185303,243,H
2022-12-05T22:26:35Z,twjbvnlp,serial-reaction-time,1,R,4,1,31,4231,0,2,380.09999990463257,432,H
2022-12-05T22:26:36Z,twjbvnlp,serial-reaction-time,1,P,4,1,32,4231,0,1,305.59999990463257,321,H
2022-12-05T22:26:36Z,twjbvnlp,serial-reaction-time,1,R,4,1,33,4231,0,2,379.09999990463257,212,T
2022-12-05T22:26:37Z,twjbvnlp,serial-reaction-time,1,P,4,1,34,4231,0,4,315.80000019073486,124,H
2022-12-05T22:26:37Z,twjbvnlp,serial-reaction-time,1,R,4,1,35,4231,0,2,361.40000009536743,242,T
2022-12-05T22:26:38Z,twjbvnlp,serial-reaction-time,1,P,4,1,36,4231,0,2,290.09999990463257,422,H
2022-12-05T22:26:38Z,twjbvnlp,serial-reaction-time,1,R,4,1,37,4231,0,1,347.2999997138977,221,L
2022-12-05T22:26:39Z,twjbvnlp,serial-reaction-time,1,P,4,1,38,4231,0,3,348.7000002861023,213,H
2022-12-05T22:26:39Z,twjbvnlp,serial-reaction-time,1,R,4,1,39,4231,0,3,289.69999980926514,133,L
2022-12-05T22:26:40Z,twjbvnlp,serial-reaction-time,1,P,4,1,40,4231,0,1,689.5999999046326,331,H
2022-12-05T22:26:40Z,twjbvnlp,serial-reaction-time,1,R,4,1,41,4231,0,1,255.6999998092651,311,H
2022-12-05T22:26:41Z,twjbvnlp,serial-reaction-time,1,P,4,1,42,4231,0,4,284.90000009536743,114,H
2022-12-05T22:26:41Z,twjbvnlp,serial-reaction-time,1,R,4,1,43,4231,0,3,324.90000009536743,143,L
2022-12-05T22:26:41Z,twjbvnlp,serial-reaction-time,1,P,4,1,44,4231,0,2,325.2999997138977,432,H
2022-12-05T22:26:42Z,twjbvnlp,serial-reaction-time,1,R,4,1,45,4231,0,1,363.5,321,H
2022-12-05T22:26:42Z,twjbvnlp,serial-reaction-time,1,P,4,1,46,4231,0,3,335,213,H
2022-12-05T22:26:43Z,twjbvnlp,serial-reaction-time,NA,R,4,1,47,4231,0,2,314.3999996185303,132,L
2022-12-05T22:26:43Z,twjbvnlp,serial-reaction-time,1,R,4,0,47,4231,0,2,535.2999997138977,132,L
2022-12-05T22:26:44Z,twjbvnlp,serial-reaction-time,1,P,4,1,48,4231,0,1,422.69999980926514,321,H
2022-12-05T22:26:44Z,twjbvnlp,serial-reaction-time,1,R,4,1,49,4231,0,4,318.09999990463257,214,L
2022-12-05T22:26:45Z,twjbvnlp,serial-reaction-time,1,P,4,1,50,4231,0,4,293.2999997138977,144,H
2022-12-05T22:26:45Z,twjbvnlp,serial-reaction-time,1,R,4,1,51,4231,0,1,434.90000009536743,441,L
2022-12-05T22:26:46Z,twjbvnlp,serial-reaction-time,1,P,4,1,52,4231,0,2,421.2000002861023,412,H
2022-12-05T22:26:46Z,twjbvnlp,serial-reaction-time,1,R,4,1,53,4231,0,4,307.3999996185303,124,H
2022-12-05T22:26:47Z,twjbvnlp,serial-reaction-time,1,P,4,1,54,4231,0,3,287.59999990463257,243,H
2022-12-05T22:26:47Z,twjbvnlp,serial-reaction-time,1,R,4,1,55,4231,0,4,361.1000003814697,434,T
2022-12-05T22:26:47Z,twjbvnlp,serial-reaction-time,1,P,4,1,56,4231,0,1,342.80000019073486,341,H
2022-12-05T22:26:48Z,twjbvnlp,serial-reaction-time,1,R,4,1,57,4231,0,2,387.80000019073486,412,H
2022-12-05T22:26:48Z,twjbvnlp,serial-reaction-time,NA,P,4,1,58,4231,0,4,351.1000003814697,124,H
2022-12-05T22:26:49Z,twjbvnlp,serial-reaction-time,1,P,4,0,58,4231,0,4,572.8000001907349,124,H
2022-12-05T22:26:49Z,twjbvnlp,serial-reaction-time,1,R,4,1,59,4231,0,2,478.30000019073486,242,T
2022-12-05T22:26:50Z,twjbvnlp,serial-reaction-time,1,P,4,1,60,4231,0,2,296.5,422,H
2022-12-05T22:26:50Z,twjbvnlp,serial-reaction-time,1,R,4,1,61,4231,0,2,312.19999980926514,222,R
2022-12-05T22:26:51Z,twjbvnlp,serial-reaction-time,1,P,4,1,62,4231,0,3,325.7000002861023,223,H
2022-12-05T22:26:51Z,twjbvnlp,serial-reaction-time,1,R,4,1,63,4231,0,4,304,234,L
2022-12-05T22:26:52Z,twjbvnlp,serial-reaction-time,1,P,4,1,64,4231,0,1,305.19999980926514,341,H
2022-12-05T22:26:52Z,twjbvnlp,serial-reaction-time,1,R,4,1,65,4231,0,4,304.1000003814697,414,T
2022-12-05T22:26:52Z,twjbvnlp,serial-reaction-time,1,P,4,1,66,4231,0,4,281.59999990463257,144,H
2022-12-05T22:26:53Z,twjbvnlp,serial-reaction-time,1,R,4,1,67,4231,0,2,341.5,442,H
2022-12-05T22:26:53Z,twjbvnlp,serial-reaction-time,1,P,4,1,68,4231,0,2,264.19999980926514,422,H
2022-12-05T22:26:54Z,twjbvnlp,serial-reaction-time,1,R,4,1,69,4231,0,2,263.59999990463257,222,R
2022-12-05T22:26:54Z,twjbvnlp,serial-reaction-time,1,P,4,1,70,4231,0,3,368.2999997138977,223,H
2022-12-05T22:26:55Z,twjbvnlp,serial-reaction-time,1,R,4,1,71,4231,0,4,295.7999997138977,234,L
2022-12-05T22:26:55Z,twjbvnlp,serial-reaction-time,1,P,4,1,72,4231,0,1,302.19999980926514,341,H
2022-12-05T22:26:56Z,twjbvnlp,serial-reaction-time,1,R,4,1,73,4231,0,2,616.5,412,H
2022-12-05T22:26:56Z,twjbvnlp,serial-reaction-time,1,P,4,1,74,4231,0,4,323,124,H
2022-12-05T22:26:57Z,twjbvnlp,serial-reaction-time,1,R,4,1,75,4231,0,2,418.90000009536743,242,T
2022-12-05T22:26:57Z,twjbvnlp,serial-reaction-time,1,P,4,1,76,4231,0,2,311.09999990463257,422,H
2022-12-05T22:26:58Z,twjbvnlp,serial-reaction-time,1,R,4,1,77,4231,0,2,302.09999990463257,222,R
2022-12-05T22:26:58Z,twjbvnlp,serial-reaction-time,NA,P,4,1,78,4231,0,3,323.30000019073486,223,H
2022-12-05T22:26:58Z,twjbvnlp,serial-reaction-time,1,P,4,0,78,4231,0,3,495.7000002861023,223,H
2022-12-05T22:26:59Z,twjbvnlp,serial-reaction-time,1,R,4,1,79,4231,0,3,319.80000019073486,233,H
2022-12-05T22:26:59Z,twjbvnlp,serial-reaction-time,1,P,4,1,80,4231,0,1,333.8999996185303,331,H
2022-12-05T22:27:04Z,twjbvnlp,html-keyboard-response,NA,NA,NA,NA,NA,NA,NA,NA,NA,NA,NA
2022-12-05T22:27:05Z,twjbvnlp,html-keyboard-response,NA,NA,NA,NA,NA,NA,NA,NA,NA,NA,NA
2022-12-05T22:27:06Z,twjbvnlp,serial-reaction-time,1,R,5,1,1,4231,0,1,412.7999997138977,1,X
2022-12-05T22:27:06Z,twjbvnlp,serial-reaction-time,1,P,5,1,2,4231,0,4,270.7999997138977,14,X
2022-12-05T22:27:07Z,twjbvnlp,serial-reaction-time,1,R,5,1,3,4231,0,1,352.30000019073486,141,T
2022-12-05T22:27:07Z,twjbvnlp,serial-reaction-time,1,P,5,1,4,4231,0,2,338.69999980926514,412,H
2022-12-05T22:27:08Z,twjbvnlp,serial-reaction-time,1,R,5,1,5,4231,0,4,329.90000009536743,124,H
2022-12-05T22:27:08Z,twjbvnlp,serial-reaction-time,1,P,5,1,6,4231,0,3,351.90000009536743,243,H
2022-12-05T22:27:09Z,twjbvnlp,serial-reaction-time,1,R,5,1,7,4231,0,4,299.30000019073486,434,T
2022-12-05T22:27:09Z,twjbvnlp,serial-reaction-time,1,P,5,1,8,4231,0,1,338.8999996185303,341,H
2022-12-05T22:27:10Z,twjbvnlp,serial-reaction-time,1,R,5,1,9,4231,0,3,306,413,L
2022-12-05T22:27:10Z,twjbvnlp,serial-reaction-time,1,P,5,1,10,4231,0,4,283.09999990463257,134,H
2022-12-05T22:27:10Z,twjbvnlp,serial-reaction-time,1,R,5,1,11,4231,0,4,317.69999980926514,344,L
2022-12-05T22:27:11Z,twjbvnlp,serial-reaction-time,1,P,5,1,12,4231,0,2,329.30000019073486,442,H
2022-12-05T22:27:11Z,twjbvnlp,serial-reaction-time,1,R,5,1,13,4231,0,4,294.2000002861023,424,T
2022-12-05T22:27:12Z,twjbvnlp,serial-reaction-time,1,P,5,1,14,4231,0,3,329,243,H
2022-12-05T22:27:12Z,twjbvnlp,serial-reaction-time,1,R,5,1,15,4231,0,3,341.40000009536743,433,L
2022-12-05T22:27:13Z,twjbvnlp,serial-reaction-time,1,P,5,1,16,4231,0,1,283.2999997138977,331,H
2022-12-05T22:27:13Z,twjbvnlp,serial-reaction-time,1,R,5,1,17,4231,0,4,311.7000002861023,314,L
2022-12-05T22:27:14Z,twjbvnlp,serial-reaction-time,1,P,5,1,18,4231,0,4,267.59999990463257,144,H
2022-12-05T22:27:14Z,twjbvnlp,serial-reaction-time,1,R,5,1,19,4231,0,3,327.69999980926514,443,L
2022-12-05T22:27:15Z,twjbvnlp,serial-reaction-time,1,P,5,1,20,4231,0,2,360.7000002861023,432,H
2022-12-05T22:27:15Z,twjbvnlp,serial-reaction-time,1,R,5,1,21,4231,0,1,327.40000009536743,321,H
2022-12-05T22:27:16Z,twjbvnlp,serial-reaction-time,1,P,5,1,22,4231,0,3,515.3999996185303,213,H
2022-12-05T22:27:16Z,twjbvnlp,serial-reaction-time,1,R,5,1,23,4231,0,3,309.5,133,L
2022-12-05T22:27:17Z,twjbvnlp,serial-reaction-time,1,P,5,1,24,4231,0,1,345.59999990463257,331,H
2022-12-05T22:27:17Z,twjbvnlp,serial-reaction-time,1,R,5,1,25,4231,0,1,287.09999990463257,311,H
2022-12-05T22:27:17Z,twjbvnlp,serial-reaction-time,1,P,5,1,26,4231,0,4,315.5,114,H
2022-12-05T22:27:18Z,twjbvnlp,serial-reaction-time,1,R,5,1,27,4231,0,3,310.69999980926514,143,L
2022-12-05T22:27:18Z,twjbvnlp,serial-reaction-time,1,P,5,1,28,4231,0,2,341.90000009536743,432,H
2022-12-05T22:27:19Z,twjbvnlp,serial-reaction-time,1,R,5,1,29,4231,0,3,312.1000003814697,323,T
2022-12-05T22:27:19Z,twjbvnlp,serial-reaction-time,1,P,5,1,30,4231,0,3,283.80000019073486,233,H
2022-12-05T22:27:20Z,twjbvnlp,serial-reaction-time,1,R,5,1,31,4231,0,1,285,331,H
2022-12-05T22:27:20Z,twjbvnlp,serial-reaction-time,1,P,5,1,32,4231,0,1,251.90000009536743,311,H
2022-12-05T22:27:20Z,twjbvnlp,serial-reaction-time,1,R,5,1,33,4231,0,4,298.2999997138977,114,H
2022-12-05T22:27:21Z,twjbvnlp,serial-reaction-time,1,P,5,1,34,4231,0,4,380.69999980926514,144,H
2022-12-05T22:27:21Z,twjbvnlp,serial-reaction-time,1,R,5,1,35,4231,0,4,270.80000019073486,444,R
2022-12-05T22:27:22Z,twjbvnlp,serial-reaction-time,1,P,5,1,36,4231,0,2,355.40000009536743,442,H
2022-12-05T22:27:22Z,twjbvnlp,serial-reaction-time,1,R,5,1,37,4231,0,4,351.19999980926514,424,T
2022-12-05T22:27:23Z,twjbvnlp,serial-reaction-time,1,P,5,1,38,4231,0,3,320,243,H
2022-12-05T22:27:23Z,twjbvnlp,serial-reaction-time,1,R,5,1,39,4231,0,3,281.19999980926514,433,L
2022-12-05T22:27:24Z,twjbvnlp,serial-reaction-time,1,P,5,1,40,4231,0,1,314.80000019073486,331,H
2022-12-05T22:27:24Z,twjbvnlp,serial-reaction-time,NA,R,5,1,41,4231,0,3,268.09999990463257,313,T
2022-12-05T22:27:24Z,twjbvnlp,serial-reaction-time,1,R,5,0,41,4231,0,3,642.6999998092651,313,T
2022-12-05T22:27:25Z,twjbvnlp,serial-reaction-time,1,P,5,1,42,4231,0,4,362.40000009536743,134,H
2022-12-05T22:27:25Z,twjbvnlp,serial-reaction-time,1,R,5,1,43,4231,0,3,369.19999980926514,343,T
2022-12-05T22:27:26Z,twjbvnlp,serial-reaction-time,1,P,5,1,44,4231,0,2,382.5,432,H
2022-12-05T22:27:26Z,twjbvnlp,serial-reaction-time,1,R,5,1,45,4231,0,1,387.09999990463257,321,H
2022-12-05T22:27:27Z,twjbvnlp,serial-reaction-time,1,P,5,1,46,4231,0,3,580.8000001907349,213,H
2022-12-05T22:27:28Z,twjbvnlp,serial-reaction-time,1,R,5,1,47,4231,0,4,363.69999980926514,134,H
2022-12-05T22:27:28Z,twjbvnlp,serial-reaction-time,1,P,5,1,48,4231,0,1,329.5,341,H
2022-12-05T22:27:29Z,twjbvnlp,serial-reaction-time,1,R,5,1,49,4231,0,2,485.7999997138977,412,H
2022-12-05T22:27:29Z,twjbvnlp,serial-reaction-time,1,P,5,1,50,4231,0,4,368.69999980926514,124,H
2022-12-05T22:27:30Z,twjbvnlp,serial-reaction-time,1,R,5,1,51,4231,0,2,371.59999990463257,242,T
2022-12-05T22:27:30Z,twjbvnlp,serial-reaction-time,NA,P,5,1,52,4231,0,2,266.8999996185303,422,H
2022-12-05T22:27:30Z,twjbvnlp,serial-reaction-time,1,P,5,0,52,4231,0,2,649.199999332428,422,H
2022-12-05T22:27:31Z,twjbvnlp,serial-reaction-time,1,R,5,1,53,4231,0,4,363.7999997138977,224,L
2022-12-05T22:27:31Z,twjbvnlp,serial-reaction-time,1,P,5,1,54,4231,0,3,343.30000019073486,243,H
2022-12-05T22:27:32Z,twjbvnlp,serial-reaction-time,1,R,5,1,55,4231,0,3,311.7999997138977,433,L
2022-12-05T22:27:32Z,twjbvnlp,serial-reaction-time,1,P,5,1,56,4231,0,1,389.90000009536743,331,H
2022-12-05T22:27:33Z,twjbvnlp,serial-reaction-time,1,R,5,1,57,4231,0,1,307.2999997138977,311,H
2022-12-05T22:27:33Z,twjbvnlp,serial-reaction-time,1,P,5,1,58,4231,0,4,317.09999990463257,114,H
2022-12-05T22:27:34Z,twjbvnlp,serial-reaction-time,1,R,5,1,59,4231,0,4,408.7999997138977,144,H
2022-12-05T22:27:34Z,twjbvnlp,serial-reaction-time,1,P,5,1,60,4231,0,2,375.5,442,H
2022-12-05T22:27:35Z,twjbvnlp,serial-reaction-time,1,R,5,1,61,4231,0,2,240.39999961853027,422,H
2022-12-05T22:27:35Z,twjbvnlp,serial-reaction-time,1,P,5,1,62,4231,0,3,279,223,H
2022-12-05T22:27:36Z,twjbvnlp,serial-reaction-time,1,R,5,1,63,4231,0,4,306.2999997138977,234,L
2022-12-05T22:27:36Z,twjbvnlp,serial-reaction-time,1,P,5,1,64,4231,0,1,304.19999980926514,341,H
2022-12-05T22:27:36Z,twjbvnlp,serial-reaction-time,1,R,5,1,65,4231,0,4,318.80000019073486,414,T
2022-12-05T22:27:37Z,twjbvnlp,serial-reaction-time,1,P,5,1,66,4231,0,4,265.90000009536743,144,H
2022-12-05T22:27:37Z,twjbvnlp,serial-reaction-time,1,R,5,1,67,4231,0,1,329.2999997138977,441,L
2022-12-05T22:27:38Z,twjbvnlp,serial-reaction-time,NA,P,5,1,68,4231,0,2,358.80000019073486,412,H
2022-12-05T22:27:38Z,twjbvnlp,serial-reaction-time,1,P,5,0,68,4231,0,2,609.5000004768372,412,H
2022-12-05T22:27:38Z,twjbvnlp,serial-reaction-time,1,R,5,1,69,4231,0,4,312.69999980926514,124,H
2022-12-05T22:27:39Z,twjbvnlp,serial-reaction-time,1,P,5,1,70,4231,0,3,340.2000002861023,243,H
2022-12-05T22:27:39Z,twjbvnlp,serial-reaction-time,1,R,5,1,71,4231,0,3,299.40000009536743,433,L
2022-12-05T22:27:40Z,twjbvnlp,serial-reaction-time,1,P,5,1,72,4231,0,1,343.90000009536743,331,H
2022-12-05T22:27:40Z,twjbvnlp,serial-reaction-time,1,R,5,1,73,4231,0,4,303.59999990463257,314,L
2022-12-05T22:27:41Z,twjbvnlp,serial-reaction-time,1,P,5,1,74,4231,0,4,299,144,H
2022-12-05T22:27:41Z,twjbvnlp,serial-reaction-time,1,R,5,1,75,4231,0,2,326.30000019073486,442,H
2022-12-05T22:27:42Z,twjbvnlp,serial-reaction-time,1,P,5,1,76,4231,0,2,307.40000009536743,422,H
2022-12-05T22:27:42Z,twjbvnlp,serial-reaction-time,NA,R,5,1,77,4231,0,3,286.3999996185303,223,H
2022-12-05T22:27:42Z,twjbvnlp,serial-reaction-time,1,R,5,0,77,4231,0,3,554.199999332428,223,H
2022-12-05T22:27:43Z,twjbvnlp,serial-reaction-time,1,P,5,1,78,4231,0,3,275.69999980926514,233,H
2022-12-05T22:27:43Z,twjbvnlp,serial-reaction-time,1,R,5,1,79,4231,0,4,376.5,334,L
2022-12-05T22:27:44Z,twjbvnlp,serial-reaction-time,1,P,5,1,80,4231,0,1,245.59999990463257,341,H
2022-12-05T22:27:49Z,twjbvnlp,html-keyboard-response,NA,NA,NA,NA,NA,NA,NA,NA,NA,NA,NA
2022-12-05T22:27:52Z,twjbvnlp,html-keyboard-response,NA,NA,NA,NA,NA,NA,NA,NA,NA,NA,NA
2022-12-05T22:27:53Z,twjbvnlp,fullscreen,NA,NA,NA,NA,NA,NA,NA,NA,NA,NA,NA
2022-12-06T16:10:29Z,4j2ynmmd,fullscreen,NA,NA,NA,NA,NA,NA,NA,NA,NA,NA,NA
2022-12-06T16:10:32Z,4j2ynmmd,html-keyboard-response,NA,NA,NA,NA,NA,NA,NA,NA,NA,NA,NA
2022-12-06T16:10:34Z,4j2ynmmd,serial-reaction-time,1,R,1,1,1,4321,0,4,427.30000000074506,4,X
2022-12-06T16:10:34Z,4j2ynmmd,serial-reaction-time,1,P,1,1,2,4321,0,4,366.5,44,X
2022-12-06T16:10:35Z,4j2ynmmd,serial-reaction-time,1,R,1,1,3,4321,0,3,375.70000000018626,443,H
2022-12-06T16:10:35Z,4j2ynmmd,serial-reaction-time,1,P,1,1,4,4321,0,3,301.70000000018626,433,H
2022-12-06T16:10:36Z,4j2ynmmd,serial-reaction-time,1,R,1,1,5,4321,0,3,344.3999999994412,333,R
2022-12-06T16:10:36Z,4j2ynmmd,serial-reaction-time,1,P,1,1,6,4321,0,2,382.8999999994412,332,H
2022-12-06T16:10:37Z,4j2ynmmd,serial-reaction-time,1,R,1,1,7,4321,0,1,366.5999999996274,321,L
2022-12-06T16:10:37Z,4j2ynmmd,serial-reaction-time,1,P,1,1,8,4321,0,1,362.5999999996274,211,H
2022-12-06T16:10:38Z,4j2ynmmd,serial-reaction-time,1,R,1,1,9,4321,0,1,371.20000000018626,111,R
2022-12-06T16:10:38Z,4j2ynmmd,serial-reaction-time,1,P,1,1,10,4321,0,4,437.4000000003726,114,H
2022-12-06T16:10:39Z,4j2ynmmd,serial-reaction-time,1,R,1,1,11,4321,0,1,422.29999999981374,141,T
2022-12-06T16:10:39Z,4j2ynmmd,serial-reaction-time,1,P,1,1,12,4321,0,3,342.1000000005588,413,H
2022-12-06T16:10:40Z,4j2ynmmd,serial-reaction-time,1,R,1,1,13,4321,0,2,358.20000000018626,132,L
2022-12-06T16:10:40Z,4j2ynmmd,serial-reaction-time,1,P,1,1,14,4321,0,2,363.5999999996274,322,H
2022-12-06T16:10:41Z,4j2ynmmd,serial-reaction-time,1,R,1,1,15,4321,0,4,380.5,224,L
2022-12-06T16:10:42Z,4j2ynmmd,serial-reaction-time,1,P,1,1,16,4321,0,1,371.5,241,H
2022-12-06T16:10:42Z,4j2ynmmd,serial-reaction-time,1,R,1,1,17,4321,0,3,348,413,H
2022-12-06T16:10:43Z,4j2ynmmd,serial-reaction-time,1,P,1,1,18,4321,0,4,495.6000000005588,134,H
2022-12-06T16:10:43Z,4j2ynmmd,serial-reaction-time,1,R,1,1,19,4321,0,3,305.70000000018626,343,T
2022-12-06T16:10:44Z,4j2ynmmd,serial-reaction-time,1,P,1,1,20,4321,0,3,325.30000000074506,433,H
2022-12-06T16:10:44Z,4j2ynmmd,serial-reaction-time,1,R,1,1,21,4321,0,2,343.40000000037253,332,H
2022-12-06T16:10:44Z,4j2ynmmd,serial-reaction-time,1,P,1,1,22,4321,0,2,327.79999999981374,322,H
2022-12-06T16:10:45Z,4j2ynmmd,serial-reaction-time,1,R,1,1,23,4321,0,2,332.20000000018626,222,R
2022-12-06T16:10:45Z,4j2ynmmd,serial-reaction-time,1,P,1,1,24,4321,0,1,348.20000000018626,221,H
2022-12-06T16:10:46Z,4j2ynmmd,serial-reaction-time,1,R,1,1,25,4321,0,3,394.0999999996274,213,L
2022-12-06T16:10:46Z,4j2ynmmd,serial-reaction-time,1,P,1,1,26,4321,0,4,346.79999999981374,134,H
2022-12-06T16:10:47Z,4j2ynmmd,serial-reaction-time,1,R,1,1,27,4321,0,1,377.29999999981374,341,L
2022-12-06T16:10:47Z,4j2ynmmd,serial-reaction-time,1,P,1,1,28,4321,0,3,329.29999999981374,413,H
2022-12-06T16:10:48Z,4j2ynmmd,serial-reaction-time,1,R,1,1,29,4321,0,1,333.70000000018626,131,T
2022-12-06T16:10:48Z,4j2ynmmd,serial-reaction-time,1,P,1,1,30,4321,0,2,398.3999999994412,312,H
2022-12-06T16:10:49Z,4j2ynmmd,serial-reaction-time,1,R,1,1,31,4321,0,3,349.29999999981374,123,L
2022-12-06T16:10:49Z,4j2ynmmd,serial-reaction-time,1,P,1,1,32,4321,0,1,329.79999999981374,231,H
2022-12-06T16:10:50Z,4j2ynmmd,serial-reaction-time,1,R,1,1,33,4321,0,1,371.29999999981374,311,L
2022-12-06T16:10:50Z,4j2ynmmd,serial-reaction-time,1,P,1,1,34,4321,0,4,316.70000000018626,114,H
2022-12-06T16:10:51Z,4j2ynmmd,serial-reaction-time,1,R,1,1,35,4321,0,2,406.20000000018626,142,L
2022-12-06T16:10:51Z,4j2ynmmd,serial-reaction-time,1,P,1,1,36,4321,0,3,329.30000000074506,423,H
2022-12-06T16:10:52Z,4j2ynmmd,serial-reaction-time,1,R,1,1,37,4321,0,2,395.5,232,T
2022-12-06T16:10:52Z,4j2ynmmd,serial-reaction-time,1,P,1,1,38,4321,0,2,318,322,H
2022-12-06T16:10:53Z,4j2ynmmd,serial-reaction-time,1,R,1,1,39,4321,0,4,336.3999999994412,224,L
2022-12-06T16:10:53Z,4j2ynmmd,serial-reaction-time,1,P,1,1,40,4321,0,1,369.19999999925494,241,H
2022-12-06T16:10:54Z,4j2ynmmd,serial-reaction-time,NA,R,1,1,41,4321,0,4,329.5,414,T
2022-12-06T16:10:54Z,4j2ynmmd,serial-reaction-time,1,R,1,0,41,4321,0,4,583.5,414,T
2022-12-06T16:10:55Z,4j2ynmmd,serial-reaction-time,1,P,1,1,42,4321,0,4,436,144,H
2022-12-06T16:10:55Z,4j2ynmmd,serial-reaction-time,1,R,1,1,43,4321,0,1,483.80000000074506,441,L
2022-12-06T16:10:56Z,4j2ynmmd,serial-reaction-time,1,P,1,1,44,4321,0,3,336.5,413,H
2022-12-06T16:10:56Z,4j2ynmmd,serial-reaction-time,1,R,1,1,45,4321,0,2,362.29999999981374,132,L
2022-12-06T16:10:57Z,4j2ynmmd,serial-reaction-time,1,P,1,1,46,4321,0,2,350.5,322,H
2022-12-06T16:10:57Z,4j2ynmmd,serial-reaction-time,1,R,1,1,47,4321,0,4,339.6000000005588,224,L
2022-12-06T16:10:58Z,4j2ynmmd,serial-reaction-time,1,P,1,1,48,4321,0,1,389.20000000018626,241,H
2022-12-06T16:10:58Z,4j2ynmmd,serial-reaction-time,1,R,1,1,49,4321,0,3,385.0999999996274,413,H
2022-12-06T16:10:59Z,4j2ynmmd,serial-reaction-time,1,P,1,1,50,4321,0,4,414.5,134,H
2022-12-06T16:10:59Z,4j2ynmmd,serial-reaction-time,1,R,1,1,51,4321,0,4,376.29999999981374,344,L
2022-12-06T16:11:00Z,4j2ynmmd,serial-reaction-time,1,P,1,1,52,4321,0,3,367,443,H
2022-12-06T16:11:00Z,4j2ynmmd,serial-reaction-time,1,R,1,1,53,4321,0,3,333,433,H
2022-12-06T16:11:01Z,4j2ynmmd,serial-reaction-time,1,P,1,1,54,4321,0,2,354.70000000018626,332,H
2022-12-06T16:11:01Z,4j2ynmmd,serial-reaction-time,1,R,1,1,55,4321,0,4,338.70000000018626,324,L
2022-12-06T16:11:02Z,4j2ynmmd,serial-reaction-time,1,P,1,1,56,4321,0,1,382,241,H
2022-12-06T16:11:02Z,4j2ynmmd,serial-reaction-time,1,R,1,1,57,4321,0,4,436.20000000018626,414,T
2022-12-06T16:11:03Z,4j2ynmmd,serial-reaction-time,1,P,1,1,58,4321,0,4,354,144,H
2022-12-06T16:11:03Z,4j2ynmmd,serial-reaction-time,1,R,1,1,59,4321,0,3,364.80000000074506,443,H
2022-12-06T16:11:04Z,4j2ynmmd,serial-reaction-time,1,P,1,1,60,4321,0,3,360.70000000018626,433,H
2022-12-06T16:11:04Z,4j2ynmmd,serial-reaction-time,1,R,1,1,61,4321,0,4,381.19999999925494,334,L
2022-12-06T16:11:05Z,4j2ynmmd,serial-reaction-time,1,P,1,1,62,4321,0,2,345.20000000018626,342,H
2022-12-06T16:11:05Z,4j2ynmmd,serial-reaction-time,1,R,1,1,63,4321,0,4,381.20000000018626,424,T
2022-12-06T16:11:06Z,4j2ynmmd,serial-reaction-time,1,P,1,1,64,4321,0,1,388.4000000003726,241,H
2022-12-06T16:11:06Z,4j2ynmmd,serial-reaction-time,1,R,1,1,65,4321,0,1,365.29999999981374,411,L
2022-12-06T16:11:07Z,4j2ynmmd,serial-reaction-time,1,P,1,1,66,4321,0,4,355,114,H
2022-12-06T16:11:07Z,4j2ynmmd,serial-reaction-time,1,R,1,1,67,4321,0,4,408.80000000074506,144,H
2022-12-06T16:11:08Z,4j2ynmmd,serial-reaction-time,1,P,1,1,68,4321,0,3,369.5999999996274,443,H
2022-12-06T16:11:08Z,4j2ynmmd,serial-reaction-time,1,R,1,1,69,4321,0,2,360.4000000003726,432,L
2022-12-06T16:11:09Z,4j2ynmmd,serial-reaction-time,1,P,1,1,70,4321,0,2,360.29999999981374,322,H
2022-12-06T16:11:09Z,4j2ynmmd,serial-reaction-time,1,R,1,1,71,4321,0,2,359.20000000018626,222,R
2022-12-06T16:11:10Z,4j2ynmmd,serial-reaction-time,1,P,1,1,72,4321,0,1,337.3999999994412,221,H
2022-12-06T16:11:10Z,4j2ynmmd,serial-reaction-time,1,R,1,1,73,4321,0,2,398.20000000018626,212,T
2022-12-06T16:11:11Z,4j2ynmmd,serial-reaction-time,1,P,1,1,74,4321,0,4,514.7999999998137,124,H
2022-12-06T16:11:11Z,4j2ynmmd,serial-reaction-time,NA,R,1,1,75,4321,0,2,350.40000000037253,242,T
2022-12-06T16:11:12Z,4j2ynmmd,serial-reaction-time,1,R,1,0,75,4321,0,2,569.9000000003725,242,T
2022-12-06T16:11:12Z,4j2ynmmd,serial-reaction-time,1,P,1,1,76,4321,0,3,431.5,423,H
2022-12-06T16:11:13Z,4j2ynmmd,serial-reaction-time,1,R,1,1,77,4321,0,3,338.79999999981374,233,L
2022-12-06T16:11:13Z,4j2ynmmd,serial-reaction-time,1,P,1,1,78,4321,0,2,391.29999999981374,332,H
2022-12-06T16:11:14Z,4j2ynmmd,serial-reaction-time,1,R,1,1,79,4321,0,4,369.0999999996274,324,L
2022-12-06T16:11:14Z,4j2ynmmd,serial-reaction-time,1,P,1,1,80,4321,0,1,518.9000000003725,241,H
2022-12-06T16:11:19Z,4j2ynmmd,html-keyboard-response,NA,NA,NA,NA,NA,NA,NA,NA,NA,NA,NA
2022-12-06T16:11:23Z,4j2ynmmd,html-keyboard-response,NA,NA,NA,NA,NA,NA,NA,NA,NA,NA,NA
2022-12-06T16:11:24Z,4j2ynmmd,serial-reaction-time,1,R,2,1,1,4321,0,4,415.1000000005588,4,X
2022-12-06T16:11:25Z,4j2ynmmd,serial-reaction-time,1,P,2,1,2,4321,0,4,368.5,44,X
2022-12-06T16:11:25Z,4j2ynmmd,serial-reaction-time,1,R,2,1,3,4321,0,3,369.0999999996274,443,H
2022-12-06T16:11:26Z,4j2ynmmd,serial-reaction-time,1,P,2,1,4,4321,0,3,313.5,433,H
2022-12-06T16:11:26Z,4j2ynmmd,serial-reaction-time,1,R,2,1,5,4321,0,3,368.9000000003726,333,R
2022-12-06T16:11:27Z,4j2ynmmd,serial-reaction-time,1,P,2,1,6,4321,0,2,476.1000000005588,332,H
2022-12-06T16:11:27Z,4j2ynmmd,serial-reaction-time,NA,R,2,1,7,4321,0,4,362.5999999996274,324,L
2022-12-06T16:11:28Z,4j2ynmmd,serial-reaction-time,1,R,2,0,7,4321,0,4,497.79999999981374,324,L
2022-12-06T16:11:28Z,4j2ynmmd,serial-reaction-time,1,P,2,1,8,4321,0,1,412.20000000018626,241,H
2022-12-06T16:11:29Z,4j2ynmmd,serial-reaction-time,1,R,2,1,9,4321,0,2,417.5999999996274,412,L
2022-12-06T16:11:29Z,4j2ynmmd,serial-reaction-time,NA,P,2,1,10,4321,0,4,337.40000000037253,124,H
2022-12-06T16:11:29Z,4j2ynmmd,serial-reaction-time,1,P,2,0,10,4321,0,4,524.5,124,H
2022-12-06T16:11:30Z,4j2ynmmd,serial-reaction-time,1,R,2,1,11,4321,0,1,363.79999999981374,241,H
2022-12-06T16:11:30Z,4j2ynmmd,serial-reaction-time,1,P,2,1,12,4321,0,3,382,413,H
2022-12-06T16:11:31Z,4j2ynmmd,serial-reaction-time,1,R,2,1,13,4321,0,3,315.3999999994412,133,L
2022-12-06T16:11:31Z,4j2ynmmd,serial-reaction-time,1,P,2,1,14,4321,0,2,297.1000000005588,332,H
2022-12-06T16:11:32Z,4j2ynmmd,serial-reaction-time,NA,R,2,1,15,4321,0,3,385.1000000005588,323,T
2022-12-06T16:11:32Z,4j2ynmmd,serial-reaction-time,1,R,2,0,15,4321,0,3,417.20000000018626,323,T
2022-12-06T16:11:32Z,4j2ynmmd,serial-reaction-time,1,P,2,1,16,4321,0,1,359.79999999981374,231,H
2022-12-06T16:11:33Z,4j2ynmmd,serial-reaction-time,1,R,2,1,17,4321,0,4,480.79999999981374,314,L
2022-12-06T16:11:33Z,4j2ynmmd,serial-reaction-time,1,P,2,1,18,4321,0,4,289,144,H
2022-12-06T16:11:34Z,4j2ynmmd,serial-reaction-time,1,R,2,1,19,4321,0,2,316.40000000037253,442,L
2022-12-06T16:11:34Z,4j2ynmmd,serial-reaction-time,1,P,2,1,20,4321,0,3,318.70000000018626,423,H
2022-12-06T16:11:35Z,4j2ynmmd,serial-reaction-time,1,R,2,1,21,4321,0,4,344.5,234,L
2022-12-06T16:11:35Z,4j2ynmmd,serial-reaction-time,1,P,2,1,22,4321,0,2,471.29999999981374,342,H
2022-12-06T16:11:36Z,4j2ynmmd,serial-reaction-time,1,R,2,1,23,4321,0,2,394.4000000003726,422,L
2022-12-06T16:11:36Z,4j2ynmmd,serial-reaction-time,1,P,2,1,24,4321,0,1,351.40000000037253,221,H
2022-12-06T16:11:37Z,4j2ynmmd,serial-reaction-time,1,R,2,1,25,4321,0,3,399.80000000074506,213,L
2022-12-06T16:11:37Z,4j2ynmmd,serial-reaction-time,1,P,2,1,26,4321,0,4,420.1000000005588,134,H
2022-12-06T16:11:38Z,4j2ynmmd,serial-reaction-time,1,R,2,1,27,4321,0,1,390.79999999981374,341,L
2022-12-06T16:11:38Z,4j2ynmmd,serial-reaction-time,1,P,2,1,28,4321,0,3,326.5,413,H
2022-12-06T16:11:39Z,4j2ynmmd,serial-reaction-time,1,R,2,1,29,4321,0,4,397.79999999981374,134,H
2022-12-06T16:11:39Z,4j2ynmmd,serial-reaction-time,1,P,2,1,30,4321,0,2,385.5,342,H
2022-12-06T16:11:40Z,4j2ynmmd,serial-reaction-time,1,R,2,1,31,4321,0,4,367.8999999994412,424,T
2022-12-06T16:11:40Z,4j2ynmmd,serial-reaction-time,1,P,2,1,32,4321,0,1,352.70000000018626,241,H
2022-12-06T16:11:41Z,4j2ynmmd,serial-reaction-time,1,R,2,1,33,4321,0,1,349.6000000005588,411,L
2022-12-06T16:11:41Z,4j2ynmmd,serial-reaction-time,1,P,2,1,34,4321,0,4,397.70000000018626,114,H
2022-12-06T16:11:42Z,4j2ynmmd,serial-reaction-time,NA,R,2,1,35,4321,0,2,347.5,142,L
2022-12-06T16:11:42Z,4j2ynmmd,serial-reaction-time,1,R,2,0,35,4321,0,2,552.0999999996275,142,L
2022-12-06T16:11:43Z,4j2ynmmd,serial-reaction-time,1,P,2,1,36,4321,0,3,327.79999999981374,423,H
2022-12-06T16:11:43Z,4j2ynmmd,serial-reaction-time,1,R,2,1,37,4321,0,4,318.5,234,L
2022-12-06T16:11:43Z,4j2ynmmd,serial-reaction-time,NA,P,2,1,38,4321,0,2,325.5,342,H
2022-12-06T16:11:44Z,4j2ynmmd,serial-reaction-time,1,P,2,0,38,4321,0,2,548,342,H
2022-12-06T16:11:44Z,4j2ynmmd,serial-reaction-time,1,R,2,1,39,4321,0,3,463.79999999981374,423,H
2022-12-06T16:11:45Z,4j2ynmmd,serial-reaction-time,1,P,2,1,40,4321,0,1,382,231,H
2022-12-06T16:11:45Z,4j2ynmmd,serial-reaction-time,1,R,2,1,41,4321,0,4,325.40000000037253,314,L
2022-12-06T16:11:46Z,4j2ynmmd,serial-reaction-time,1,P,2,1,42,4321,0,4,332.40000000037253,144,H
2022-12-06T16:11:46Z,4j2ynmmd,serial-reaction-time,1,R,2,1,43,4321,0,1,358.20000000018626,441,L
2022-12-06T16:11:47Z,4j2ynmmd,serial-reaction-time,NA,P,2,1,44,4321,0,3,329.29999999981374,413,H
2022-12-06T16:11:47Z,4j2ynmmd,serial-reaction-time,1,P,2,0,44,4321,0,3,466.19999999925494,413,H
2022-12-06T16:11:47Z,4j2ynmmd,serial-reaction-time,1,R,2,1,45,4321,0,1,462.19999999925494,131,T
2022-12-06T16:11:48Z,4j2ynmmd,serial-reaction-time,1,P,2,1,46,4321,0,2,382.5,312,H
2022-12-06T16:11:48Z,4j2ynmmd,serial-reaction-time,1,R,2,1,47,4321,0,4,363.79999999981374,124,H
2022-12-06T16:11:49Z,4j2ynmmd,serial-reaction-time,1,P,2,1,48,4321,0,1,462.80000000074506,241,H
2022-12-06T16:11:50Z,4j2ynmmd,serial-reaction-time,1,R,2,1,49,4321,0,1,324.29999999981374,411,L
2022-12-06T16:11:50Z,4j2ynmmd,serial-reaction-time,1,P,2,1,50,4321,0,4,423.20000000018626,114,H
2022-12-06T16:11:51Z,4j2ynmmd,serial-reaction-time,1,R,2,1,51,4321,0,4,401.20000000018626,144,H
2022-12-06T16:11:51Z,4j2ynmmd,serial-reaction-time,NA,P,2,1,52,4321,0,3,333.20000000018626,443,H
2022-12-06T16:11:51Z,4j2ynmmd,serial-reaction-time,1,P,2,0,52,4321,0,3,542.1000000005588,443,H
2022-12-06T16:11:52Z,4j2ynmmd,serial-reaction-time,1,R,2,1,53,4321,0,1,531.7000000001863,431,L
2022-12-06T16:11:53Z,4j2ynmmd,serial-reaction-time,1,P,2,1,54,4321,0,2,430.1000000005588,312,H
2022-12-06T16:11:53Z,4j2ynmmd,serial-reaction-time,1,R,2,1,55,4321,0,3,408.79999999981374,123,L
2022-12-06T16:11:54Z,4j2ynmmd,serial-reaction-time,1,P,2,1,56,4321,0,1,381.5999999996274,231,H
2022-12-06T16:11:54Z,4j2ynmmd,serial-reaction-time,1,R,2,1,57,4321,0,1,403.9000000003726,311,L
2022-12-06T16:11:55Z,4j2ynmmd,serial-reaction-time,1,P,2,1,58,4321,0,4,339.3999999994412,114,H
2022-12-06T16:11:55Z,4j2ynmmd,serial-reaction-time,1,R,2,1,59,4321,0,3,405.6000000005588,143,L
2022-12-06T16:11:56Z,4j2ynmmd,serial-reaction-time,1,P,2,1,60,4321,0,3,368.20000000018626,433,H
2022-12-06T16:11:56Z,4j2ynmmd,serial-reaction-time,1,R,2,1,61,4321,0,1,357.79999999981374,331,L
2022-12-06T16:11:57Z,4j2ynmmd,serial-reaction-time,1,P,2,1,62,4321,0,2,357.09999999962747,312,H
2022-12-06T16:11:57Z,4j2ynmmd,serial-reaction-time,1,R,2,1,63,4321,0,3,381.6000000005588,123,L
2022-12-06T16:11:58Z,4j2ynmmd,serial-reaction-time,1,P,2,1,64,4321,0,1,342.90000000037253,231,H
2022-12-06T16:11:58Z,4j2ynmmd,serial-reaction-time,1,R,2,1,65,4321,0,4,442.30000000074506,314,L
2022-12-06T16:11:59Z,4j2ynmmd,serial-reaction-time,1,P,2,1,66,4321,0,4,354.6000000005588,144,H
2022-12-06T16:11:59Z,4j2ynmmd,serial-reaction-time,1,R,2,1,67,4321,0,3,367.0999999996274,443,H
2022-12-06T16:12:00Z,4j2ynmmd,serial-reaction-time,1,P,2,1,68,4321,0,3,362.80000000074506,433,H
2022-12-06T16:12:00Z,4j2ynmmd,serial-reaction-time,1,R,2,1,69,4321,0,4,384.19999999925494,334,L
2022-12-06T16:12:01Z,4j2ynmmd,serial-reaction-time,NA,P,2,1,70,4321,0,2,374.3999999994412,342,H
2022-12-06T16:12:01Z,4j2ynmmd,serial-reaction-time,1,P,2,0,70,4321,0,2,537.3999999994412,342,H
2022-12-06T16:12:01Z,4j2ynmmd,serial-reaction-time,1,R,2,1,71,4321,0,4,384.29999999981374,424,T
2022-12-06T16:12:02Z,4j2ynmmd,serial-reaction-time,1,P,2,1,72,4321,0,1,324.5,241,H
2022-12-06T16:12:02Z,4j2ynmmd,serial-reaction-time,1,R,2,1,73,4321,0,1,375.3999999994412,411,L
2022-12-06T16:12:03Z,4j2ynmmd,serial-reaction-time,NA,P,2,1,74,4321,0,4,365.5,114,H
2022-12-06T16:12:03Z,4j2ynmmd,serial-reaction-time,1,P,2,0,74,4321,0,4,491.0999999996274,114,H
2022-12-06T16:12:03Z,4j2ynmmd,serial-reaction-time,NA,R,2,1,75,4321,0,3,360.80000000074506,143,L
2022-12-06T16:12:04Z,4j2ynmmd,serial-reaction-time,1,R,2,0,75,4321,0,3,429.30000000074506,143,L
2022-12-06T16:12:04Z,4j2ynmmd,serial-reaction-time,1,P,2,1,76,4321,0,3,373.3999999994412,433,H
2022-12-06T16:12:05Z,4j2ynmmd,serial-reaction-time,1,R,2,1,77,4321,0,2,376.5,332,H
2022-12-06T16:12:05Z,4j2ynmmd,serial-reaction-time,1,P,2,1,78,4321,0,2,339.3999999994412,322,H
2022-12-06T16:12:06Z,4j2ynmmd,serial-reaction-time,1,R,2,1,79,4321,0,1,365.1000000005588,221,H
2022-12-06T16:12:06Z,4j2ynmmd,serial-reaction-time,1,P,2,1,80,4321,0,1,347.20000000018626,211,H
2022-12-06T16:12:11Z,4j2ynmmd,html-keyboard-response,NA,NA,NA,NA,NA,NA,NA,NA,NA,NA,NA
2022-12-06T16:12:13Z,4j2ynmmd,html-keyboard-response,NA,NA,NA,NA,NA,NA,NA,NA,NA,NA,NA
2022-12-06T16:12:14Z,4j2ynmmd,serial-reaction-time,1,R,3,1,1,4321,0,1,390.79999999981374,1,X
2022-12-06T16:12:15Z,4j2ynmmd,serial-reaction-time,1,P,3,1,2,4321,0,4,408,14,X
2022-12-06T16:12:15Z,4j2ynmmd,serial-reaction-time,1,R,3,1,3,4321,0,4,369.20000000018626,144,H
2022-12-06T16:12:16Z,4j2ynmmd,serial-reaction-time,1,P,3,1,4,4321,0,3,377,443,H
2022-12-06T16:12:16Z,4j2ynmmd,serial-reaction-time,1,R,3,1,5,4321,0,3,357.3999999994412,433,H
2022-12-06T16:12:17Z,4j2ynmmd,serial-reaction-time,1,P,3,1,6,4321,0,2,344.5,332,H
2022-12-06T16:12:17Z,4j2ynmmd,serial-reaction-time,1,R,3,1,7,4321,0,4,406.20000000018626,324,L
2022-12-06T16:12:18Z,4j2ynmmd,serial-reaction-time,1,P,3,1,8,4321,0,1,370,241,H
2022-12-06T16:12:18Z,4j2ynmmd,serial-reaction-time,1,R,3,1,9,4321,0,2,391,412,L
2022-12-06T16:12:19Z,4j2ynmmd,serial-reaction-time,NA,P,3,1,10,4321,0,4,378.5999999996274,124,H
2022-12-06T16:12:19Z,4j2ynmmd,serial-reaction-time,1,P,3,0,10,4321,0,4,595.0999999996275,124,H
2022-12-06T16:12:20Z,4j2ynmmd,serial-reaction-time,NA,R,3,1,11,4321,0,1,370.19999999925494,241,H
2022-12-06T16:12:20Z,4j2ynmmd,serial-reaction-time,1,R,3,0,11,4321,0,1,543.4999999990687,241,H
2022-12-06T16:12:20Z,4j2ynmmd,serial-reaction-time,1,P,3,1,12,4321,0,3,335.40000000037253,413,H
2022-12-06T16:12:21Z,4j2ynmmd,serial-reaction-time,1,R,3,1,13,4321,0,2,370.8999999994412,132,L
2022-12-06T16:12:21Z,4j2ynmmd,serial-reaction-time,1,P,3,1,14,4321,0,2,345.70000000018626,322,H
2022-12-06T16:12:22Z,4j2ynmmd,serial-reaction-time,1,R,3,1,15,4321,0,3,371.5999999996274,223,L
2022-12-06T16:12:22Z,4j2ynmmd,serial-reaction-time,1,P,3,1,16,4321,0,1,356.70000000018626,231,H
2022-12-06T16:12:23Z,4j2ynmmd,serial-reaction-time,1,R,3,1,17,4321,0,4,333.70000000018626,314,L
2022-12-06T16:12:23Z,4j2ynmmd,serial-reaction-time,1,P,3,1,18,4321,0,4,359.59999999962747,144,H
2022-12-06T16:12:24Z,4j2ynmmd,serial-reaction-time,1,R,3,1,19,4321,0,4,408.70000000018626,444,R
2022-12-06T16:12:24Z,4j2ynmmd,serial-reaction-time,1,P,3,1,20,4321,0,3,398.70000000018626,443,H
2022-12-06T16:12:25Z,4j2ynmmd,serial-reaction-time,1,R,3,1,21,4321,0,2,313.59999999962747,432,L
2022-12-06T16:12:25Z,4j2ynmmd,serial-reaction-time,1,P,3,1,22,4321,0,2,309.6000000005588,322,H
2022-12-06T16:12:26Z,4j2ynmmd,serial-reaction-time,1,R,3,1,23,4321,0,3,343.90000000037253,223,L
2022-12-06T16:12:26Z,4j2ynmmd,serial-reaction-time,1,P,3,1,24,4321,0,1,350.5,231,H
2022-12-06T16:12:27Z,4j2ynmmd,serial-reaction-time,1,R,3,1,25,4321,0,1,360.5,311,L
2022-12-06T16:12:27Z,4j2ynmmd,serial-reaction-time,1,P,3,1,26,4321,0,4,365.20000000018626,114,H
2022-12-06T16:12:28Z,4j2ynmmd,serial-reaction-time,1,R,3,1,27,4321,0,4,322.29999999981374,144,H
2022-12-06T16:12:28Z,4j2ynmmd,serial-reaction-time,1,P,3,1,28,4321,0,3,351,443,H
2022-12-06T16:12:29Z,4j2ynmmd,serial-reaction-time,1,R,3,1,29,4321,0,4,426.8999999994412,434,T
2022-12-06T16:12:29Z,4j2ynmmd,serial-reaction-time,NA,P,3,1,30,4321,0,2,362.6000000005588,342,H
2022-12-06T16:12:29Z,4j2ynmmd,serial-reaction-time,1,P,3,0,30,4321,0,2,528.0000000009313,342,H
2022-12-06T16:12:30Z,4j2ynmmd,serial-reaction-time,NA,R,3,1,31,4321,0,2,356.20000000018626,422,L
2022-12-06T16:12:30Z,4j2ynmmd,serial-reaction-time,1,R,3,0,31,4321,0,2,418.0000000009313,422,L
2022-12-06T16:12:30Z,4j2ynmmd,serial-reaction-time,1,P,3,1,32,4321,0,1,444.8999999994412,221,H
2022-12-06T16:12:31Z,4j2ynmmd,serial-reaction-time,1,R,3,1,33,4321,0,2,388.20000000018626,212,T
2022-12-06T16:12:31Z,4j2ynmmd,serial-reaction-time,1,P,3,1,34,4321,0,4,353.09999999962747,124,H
2022-12-06T16:12:32Z,4j2ynmmd,serial-reaction-time,1,R,3,1,35,4321,0,1,351.40000000037253,241,H
2022-12-06T16:12:32Z,4j2ynmmd,serial-reaction-time,1,P,3,1,36,4321,0,3,350.90000000037253,413,H
2022-12-06T16:12:33Z,4j2ynmmd,serial-reaction-time,1,R,3,1,37,4321,0,4,424.70000000018626,134,H
2022-12-06T16:12:33Z,4j2ynmmd,serial-reaction-time,1,P,3,1,38,4321,0,2,400.20000000018626,342,H
2022-12-06T16:12:34Z,4j2ynmmd,serial-reaction-time,1,R,3,1,39,4321,0,3,351.90000000037253,423,H
2022-12-06T16:12:34Z,4j2ynmmd,serial-reaction-time,1,P,3,1,40,4321,0,1,381.8999999994412,231,H
2022-12-06T16:12:35Z,4j2ynmmd,serial-reaction-time,1,R,3,1,41,4321,0,4,352.59999999962747,314,L
2022-12-06T16:12:35Z,4j2ynmmd,serial-reaction-time,1,P,3,1,42,4321,0,4,371.9000000003726,144,H
2022-12-06T16:12:36Z,4j2ynmmd,serial-reaction-time,1,R,3,1,43,4321,0,2,326,442,L
2022-12-06T16:12:36Z,4j2ynmmd,serial-reaction-time,1,P,3,1,44,4321,0,3,339.69999999925494,423,H
2022-12-06T16:12:37Z,4j2ynmmd,serial-reaction-time,1,R,3,1,45,4321,0,4,349.70000000018626,234,L
2022-12-06T16:12:37Z,4j2ynmmd,serial-reaction-time,1,P,3,1,46,4321,0,2,339.20000000018626,342,H
2022-12-06T16:12:38Z,4j2ynmmd,serial-reaction-time,1,R,3,1,47,4321,0,3,313.20000000018626,423,H
2022-12-06T16:12:38Z,4j2ynmmd,serial-reaction-time,1,P,3,1,48,4321,0,1,349,231,H
2022-12-06T16:12:39Z,4j2ynmmd,serial-reaction-time,1,R,3,1,49,4321,0,2,389.20000000018626,312,H
2022-12-06T16:12:39Z,4j2ynmmd,serial-reaction-time,1,P,3,1,50,4321,0,4,377.6000000005588,124,H
2022-12-06T16:12:40Z,4j2ynmmd,serial-reaction-time,1,R,3,1,51,4321,0,2,381.9000000003726,242,T
2022-12-06T16:12:40Z,4j2ynmmd,serial-reaction-time,1,P,3,1,52,4321,0,3,326.09999999962747,423,H
2022-12-06T16:12:41Z,4j2ynmmd,serial-reaction-time,1,R,3,1,53,4321,0,1,347,231,H
2022-12-06T16:12:41Z,4j2ynmmd,serial-reaction-time,1,P,3,1,54,4321,0,2,380.1000000005588,312,H
2022-12-06T16:12:42Z,4j2ynmmd,serial-reaction-time,1,R,3,1,55,4321,0,1,367.79999999981374,121,T
2022-12-06T16:12:42Z,4j2ynmmd,serial-reaction-time,1,P,3,1,56,4321,0,1,420.79999999981374,211,H
2022-12-06T16:12:43Z,4j2ynmmd,serial-reaction-time,1,R,3,1,57,4321,0,2,342.59999999962747,112,L
2022-12-06T16:12:43Z,4j2ynmmd,serial-reaction-time,1,P,3,1,58,4321,0,4,542.2999999998137,124,H
2022-12-06T16:12:44Z,4j2ynmmd,serial-reaction-time,1,R,3,1,59,4321,0,1,507.4000000003726,241,H
2022-12-06T16:12:45Z,4j2ynmmd,serial-reaction-time,1,P,3,1,60,4321,0,3,341.69999999925494,413,H
2022-12-06T16:12:45Z,4j2ynmmd,serial-reaction-time,1,R,3,1,61,4321,0,1,337.09999999962747,131,T
2022-12-06T16:12:46Z,4j2ynmmd,serial-reaction-time,1,P,3,1,62,4321,0,2,333.3999999994412,312,H
2022-12-06T16:12:46Z,4j2ynmmd,serial-reaction-time,1,R,3,1,63,4321,0,3,391.0999999996274,123,L
2022-12-06T16:12:47Z,4j2ynmmd,serial-reaction-time,1,P,3,1,64,4321,0,1,323.59999999962747,231,H
2022-12-06T16:12:47Z,4j2ynmmd,serial-reaction-time,1,R,3,1,65,4321,0,3,338.5,313,T
2022-12-06T16:12:48Z,4j2ynmmd,serial-reaction-time,1,P,3,1,66,4321,0,4,373.70000000018626,134,H
2022-12-06T16:12:48Z,4j2ynmmd,serial-reaction-time,1,R,3,1,67,4321,0,4,531.9000000003725,344,L
2022-12-06T16:12:49Z,4j2ynmmd,serial-reaction-time,1,P,3,1,68,4321,0,3,394.29999999981374,443,H
2022-12-06T16:12:49Z,4j2ynmmd,serial-reaction-time,NA,R,3,1,69,4321,0,4,371.0999999996274,434,T
2022-12-06T16:12:49Z,4j2ynmmd,serial-reaction-time,1,R,3,0,69,4321,0,4,449,434,T
2022-12-06T16:12:50Z,4j2ynmmd,serial-reaction-time,NA,P,3,1,70,4321,0,2,439.79999999981374,342,H
2022-12-06T16:12:50Z,4j2ynmmd,serial-reaction-time,1,P,3,0,70,4321,0,2,593.7999999998137,342,H
2022-12-06T16:12:51Z,4j2ynmmd,serial-reaction-time,1,R,3,1,71,4321,0,2,344,422,L
2022-12-06T16:12:51Z,4j2ynmmd,serial-reaction-time,1,P,3,1,72,4321,0,1,347.1000000005588,221,H
2022-12-06T16:12:52Z,4j2ynmmd,serial-reaction-time,1,R,3,1,73,4321,0,4,483.1000000005588,214,L
2022-12-06T16:12:52Z,4j2ynmmd,serial-reaction-time,1,P,3,1,74,4321,0,4,375.4000000003726,144,H
2022-12-06T16:12:53Z,4j2ynmmd,serial-reaction-time,1,R,3,1,75,4321,0,1,392.20000000018626,441,L
2022-12-06T16:12:53Z,4j2ynmmd,serial-reaction-time,1,P,3,1,76,4321,0,3,403,413,H
2022-12-06T16:12:54Z,4j2ynmmd,serial-reaction-time,1,R,3,1,77,4321,0,2,425.79999999981374,132,L
2022-12-06T16:12:54Z,4j2ynmmd,serial-reaction-time,1,P,3,1,78,4321,0,2,418.29999999981374,322,H
2022-12-06T16:12:55Z,4j2ynmmd,serial-reaction-time,1,R,3,1,79,4321,0,3,442.0999999996274,223,L
2022-12-06T16:12:55Z,4j2ynmmd,serial-reaction-time,1,P,3,1,80,4321,0,1,336.5,231,H
2022-12-06T16:13:00Z,4j2ynmmd,html-keyboard-response,NA,NA,NA,NA,NA,NA,NA,NA,NA,NA,NA
2022-12-06T16:13:01Z,4j2ynmmd,html-keyboard-response,NA,NA,NA,NA,NA,NA,NA,NA,NA,NA,NA
2022-12-06T16:13:02Z,4j2ynmmd,serial-reaction-time,1,R,4,1,1,4321,0,3,442,3,X
2022-12-06T16:13:03Z,4j2ynmmd,serial-reaction-time,1,P,4,1,2,4321,0,4,375.29999999981374,34,X
2022-12-06T16:13:03Z,4j2ynmmd,serial-reaction-time,1,R,4,1,3,4321,0,4,390.0999999996274,344,L
2022-12-06T16:13:04Z,4j2ynmmd,serial-reaction-time,1,P,4,1,4,4321,0,3,355.5,443,H
2022-12-06T16:13:04Z,4j2ynmmd,serial-reaction-time,1,R,4,1,5,4321,0,3,304.90000000037253,433,H
2022-12-06T16:13:05Z,4j2ynmmd,serial-reaction-time,1,P,4,1,6,4321,0,2,332.20000000018626,332,H
2022-12-06T16:13:05Z,4j2ynmmd,serial-reaction-time,NA,R,4,1,7,4321,0,3,353.20000000018626,323,T
2022-12-06T16:13:06Z,4j2ynmmd,serial-reaction-time,1,R,4,0,7,4321,0,3,582.8999999994412,323,T
2022-12-06T16:13:06Z,4j2ynmmd,serial-reaction-time,1,P,4,1,8,4321,0,1,407.9000000003726,231,H
2022-12-06T16:13:07Z,4j2ynmmd,serial-reaction-time,1,R,4,1,9,4321,0,1,349.29999999981374,311,L
2022-12-06T16:13:07Z,4j2ynmmd,serial-reaction-time,1,P,4,1,10,4321,0,4,332.40000000037253,114,H
2022-12-06T16:13:08Z,4j2ynmmd,serial-reaction-time,1,R,4,1,11,4321,0,1,365,141,T
2022-12-06T16:13:08Z,4j2ynmmd,serial-reaction-time,1,P,4,1,12,4321,0,3,348.09999999962747,413,H
2022-12-06T16:13:09Z,4j2ynmmd,serial-reaction-time,1,R,4,1,13,4321,0,1,321.59999999962747,131,T
2022-12-06T16:13:09Z,4j2ynmmd,serial-reaction-time,1,P,4,1,14,4321,0,2,405.1000000005588,312,H
2022-12-06T16:13:10Z,4j2ynmmd,serial-reaction-time,1,R,4,1,15,4321,0,4,401.20000000018626,124,H
2022-12-06T16:13:10Z,4j2ynmmd,serial-reaction-time,1,P,4,1,16,4321,0,1,289.6000000005588,241,H
2022-12-06T16:13:11Z,4j2ynmmd,serial-reaction-time,1,R,4,1,17,4321,0,4,493.79999999981374,414,T
2022-12-06T16:13:11Z,4j2ynmmd,serial-reaction-time,1,P,4,1,18,4321,0,4,416,144,H
2022-12-06T16:13:12Z,4j2ynmmd,serial-reaction-time,1,R,4,1,19,4321,0,1,405.29999999981374,441,L
2022-12-06T16:13:12Z,4j2ynmmd,serial-reaction-time,1,P,4,1,20,4321,0,3,339.20000000018626,413,H
2022-12-06T16:13:13Z,4j2ynmmd,serial-reaction-time,1,R,4,1,21,4321,0,3,358.70000000018626,133,L
2022-12-06T16:13:13Z,4j2ynmmd,serial-reaction-time,1,P,4,1,22,4321,0,2,430.3999999994412,332,H
2022-12-06T16:13:14Z,4j2ynmmd,serial-reaction-time,1,R,4,1,23,4321,0,4,409.0999999996274,324,L
2022-12-06T16:13:14Z,4j2ynmmd,serial-reaction-time,1,P,4,1,24,4321,0,1,316.90000000037253,241,H
2022-12-06T16:13:15Z,4j2ynmmd,serial-reaction-time,1,R,4,1,25,4321,0,3,352.19999999925494,413,H
2022-12-06T16:13:15Z,4j2ynmmd,serial-reaction-time,1,P,4,1,26,4321,0,4,386.79999999981374,134,H
2022-12-06T16:13:16Z,4j2ynmmd,serial-reaction-time,1,R,4,1,27,4321,0,1,324.6000000005588,341,L
2022-12-06T16:13:16Z,4j2ynmmd,serial-reaction-time,1,P,4,1,28,4321,0,3,346.1000000005588,413,H
2022-12-06T16:13:17Z,4j2ynmmd,serial-reaction-time,1,R,4,1,29,4321,0,4,387,134,H
2022-12-06T16:13:17Z,4j2ynmmd,serial-reaction-time,1,P,4,1,30,4321,0,2,475,342,H
2022-12-06T16:13:18Z,4j2ynmmd,serial-reaction-time,1,R,4,1,31,4321,0,2,384.20000000018626,422,L
2022-12-06T16:13:18Z,4j2ynmmd,serial-reaction-time,1,P,4,1,32,4321,0,1,369.3999999994412,221,H
2022-12-06T16:13:19Z,4j2ynmmd,serial-reaction-time,1,R,4,1,33,4321,0,3,403.5999999996274,213,L
2022-12-06T16:13:19Z,4j2ynmmd,serial-reaction-time,1,P,4,1,34,4321,0,4,315.40000000037253,134,H
2022-12-06T16:13:20Z,4j2ynmmd,serial-reaction-time,NA,R,4,1,35,4321,0,2,295.1000000005588,342,H
2022-12-06T16:13:20Z,4j2ynmmd,serial-reaction-time,1,R,4,0,35,4321,0,2,458.30000000074506,342,H
2022-12-06T16:13:20Z,4j2ynmmd,serial-reaction-time,1,P,4,1,36,4321,0,3,333.70000000018626,423,H
2022-12-06T16:13:21Z,4j2ynmmd,serial-reaction-time,1,R,4,1,37,4321,0,4,318.8999999994412,234,L
2022-12-06T16:13:21Z,4j2ynmmd,serial-reaction-time,1,P,4,1,38,4321,0,2,394.5,342,H
2022-12-06T16:13:22Z,4j2ynmmd,serial-reaction-time,1,R,4,1,39,4321,0,1,367.5,421,L
2022-12-06T16:13:22Z,4j2ynmmd,serial-reaction-time,1,P,4,1,40,4321,0,1,380.5,211,H
2022-12-06T16:13:23Z,4j2ynmmd,serial-reaction-time,1,R,4,1,41,4321,0,4,374.1000000005588,114,H
2022-12-06T16:13:23Z,4j2ynmmd,serial-reaction-time,1,P,4,1,42,4321,0,4,416.8999999994412,144,H
2022-12-06T16:13:24Z,4j2ynmmd,serial-reaction-time,1,R,4,1,43,4321,0,1,399.3999999994412,441,L
2022-12-06T16:13:25Z,4j2ynmmd,serial-reaction-time,1,P,4,1,44,4321,0,3,442.5,413,H
2022-12-06T16:13:25Z,4j2ynmmd,serial-reaction-time,1,R,4,1,45,4321,0,3,578.5,133,L
2022-12-06T16:13:26Z,4j2ynmmd,serial-reaction-time,1,P,4,1,46,4321,0,2,378.70000000018626,332,H
2022-12-06T16:13:26Z,4j2ynmmd,serial-reaction-time,1,R,4,1,47,4321,0,2,364.8999999994412,322,H
2022-12-06T16:13:27Z,4j2ynmmd,serial-reaction-time,1,P,4,1,48,4321,0,1,351,221,H
2022-12-06T16:13:27Z,4j2ynmmd,serial-reaction-time,1,R,4,1,49,4321,0,1,335.5,211,H
2022-12-06T16:13:28Z,4j2ynmmd,serial-reaction-time,1,P,4,1,50,4321,0,4,336.6000000005588,114,H
2022-12-06T16:13:28Z,4j2ynmmd,serial-reaction-time,1,R,4,1,51,4321,0,2,372,142,L
2022-12-06T16:13:29Z,4j2ynmmd,serial-reaction-time,1,P,4,1,52,4321,0,3,326,423,H
2022-12-06T16:13:29Z,4j2ynmmd,serial-reaction-time,1,R,4,1,53,4321,0,1,340.3999999994412,231,H
2022-12-06T16:13:30Z,4j2ynmmd,serial-reaction-time,1,P,4,1,54,4321,0,2,392,312,H
2022-12-06T16:13:30Z,4j2ynmmd,serial-reaction-time,1,R,4,1,55,4321,0,4,422.0999999996274,124,H
2022-12-06T16:13:31Z,4j2ynmmd,serial-reaction-time,1,P,4,1,56,4321,0,1,424,241,H
2022-12-06T16:13:31Z,4j2ynmmd,serial-reaction-time,NA,R,4,1,57,4321,0,3,393.70000000018626,413,H
2022-12-06T16:13:31Z,4j2ynmmd,serial-reaction-time,1,R,4,0,57,4321,0,3,514.8000000007451,413,H
2022-12-06T16:13:32Z,4j2ynmmd,serial-reaction-time,1,P,4,1,58,4321,0,4,347.30000000074506,134,H
2022-12-06T16:13:32Z,4j2ynmmd,serial-reaction-time,1,R,4,1,59,4321,0,2,308.09999999962747,342,H
2022-12-06T16:13:33Z,4j2ynmmd,serial-reaction-time,1,P,4,1,60,4321,0,3,346.19999999925494,423,H
2022-12-06T16:13:33Z,4j2ynmmd,serial-reaction-time,1,R,4,1,61,4321,0,4,317,234,L
2022-12-06T16:13:34Z,4j2ynmmd,serial-reaction-time,1,P,4,1,62,4321,0,2,281.09999999962747,342,H
2022-12-06T16:13:34Z,4j2ynmmd,serial-reaction-time,1,R,4,1,63,4321,0,4,436.1000000005588,424,T
2022-12-06T16:13:35Z,4j2ynmmd,serial-reaction-time,1,P,4,1,64,4321,0,1,311.90000000037253,241,H
2022-12-06T16:13:35Z,4j2ynmmd,serial-reaction-time,1,R,4,1,65,4321,0,4,461.3999999994412,414,T
2022-12-06T16:13:36Z,4j2ynmmd,serial-reaction-time,1,P,4,1,66,4321,0,4,373.9000000003726,144,H
2022-12-06T16:13:36Z,4j2ynmmd,serial-reaction-time,1,R,4,1,67,4321,0,2,331.5,442,L
2022-12-06T16:13:37Z,4j2ynmmd,serial-reaction-time,1,P,4,1,68,4321,0,3,345.6000000005588,423,H
2022-12-06T16:13:37Z,4j2ynmmd,serial-reaction-time,1,R,4,1,69,4321,0,1,316.40000000037253,231,H
2022-12-06T16:13:38Z,4j2ynmmd,serial-reaction-time,1,P,4,1,70,4321,0,2,428.1000000005588,312,H
2022-12-06T16:13:38Z,4j2ynmmd,serial-reaction-time,NA,R,4,1,71,4321,0,3,320.70000000018626,123,L
2022-12-06T16:13:38Z,4j2ynmmd,serial-reaction-time,1,R,4,0,71,4321,0,3,549.3000000007451,123,L
2022-12-06T16:13:39Z,4j2ynmmd,serial-reaction-time,1,P,4,1,72,4321,0,1,340.29999999981374,231,H
2022-12-06T16:13:39Z,4j2ynmmd,serial-reaction-time,1,R,4,1,73,4321,0,3,423.5,313,T
2022-12-06T16:13:40Z,4j2ynmmd,serial-reaction-time,1,P,4,1,74,4321,0,4,447.20000000018626,134,H
2022-12-06T16:13:40Z,4j2ynmmd,serial-reaction-time,1,R,4,1,75,4321,0,1,281.30000000074506,341,L
2022-12-06T16:13:41Z,4j2ynmmd,serial-reaction-time,1,P,4,1,76,4321,0,3,318.29999999981374,413,H
2022-12-06T16:13:41Z,4j2ynmmd,serial-reaction-time,NA,R,4,1,77,4321,0,2,321.29999999981374,132,L
2022-12-06T16:13:42Z,4j2ynmmd,serial-reaction-time,1,R,4,0,77,4321,0,2,541.7999999998137,132,L
2022-12-06T16:13:42Z,4j2ynmmd,serial-reaction-time,1,P,4,1,78,4321,0,2,369.20000000018626,322,H
2022-12-06T16:13:43Z,4j2ynmmd,serial-reaction-time,1,R,4,1,79,4321,0,2,348.09999999962747,222,R
2022-12-06T16:13:43Z,4j2ynmmd,serial-reaction-time,1,P,4,1,80,4321,0,1,454.20000000018626,221,H
2022-12-06T16:13:48Z,4j2ynmmd,html-keyboard-response,NA,NA,NA,NA,NA,NA,NA,NA,NA,NA,NA
2022-12-06T16:13:49Z,4j2ynmmd,html-keyboard-response,NA,NA,NA,NA,NA,NA,NA,NA,NA,NA,NA
2022-12-06T16:13:50Z,4j2ynmmd,serial-reaction-time,1,R,5,1,1,4321,0,3,387.5999999996274,3,X
2022-12-06T16:13:51Z,4j2ynmmd,serial-reaction-time,1,P,5,1,2,4321,0,4,414.79999999981374,34,X
2022-12-06T16:13:51Z,4j2ynmmd,serial-reaction-time,NA,R,5,1,3,4321,0,4,314.29999999981374,344,L
2022-12-06T16:13:52Z,4j2ynmmd,serial-reaction-time,1,R,5,0,3,4321,0,4,674.1000000005588,344,L
2022-12-06T16:13:52Z,4j2ynmmd,serial-reaction-time,1,P,5,1,4,4321,0,3,391.8999999994412,443,H
2022-12-06T16:13:53Z,4j2ynmmd,serial-reaction-time,NA,R,5,1,5,4321,0,1,328.09999999962747,431,L
2022-12-06T16:13:53Z,4j2ynmmd,serial-reaction-time,1,R,5,0,5,4321,0,1,595.7999999998137,431,L
2022-12-06T16:13:53Z,4j2ynmmd,serial-reaction-time,1,P,5,1,6,4321,0,2,373.70000000018626,312,H
2022-12-06T16:13:54Z,4j2ynmmd,serial-reaction-time,1,R,5,1,7,4321,0,2,327.5,122,L
2022-12-06T16:13:54Z,4j2ynmmd,serial-reaction-time,1,P,5,1,8,4321,0,1,317.6000000005588,221,H
2022-12-06T16:13:55Z,4j2ynmmd,serial-reaction-time,1,R,5,1,9,4321,0,1,341.40000000037253,211,H
2022-12-06T16:13:55Z,4j2ynmmd,serial-reaction-time,1,P,5,1,10,4321,0,4,335.5,114,H
2022-12-06T16:13:56Z,4j2ynmmd,serial-reaction-time,1,R,5,1,11,4321,0,4,299.1000000005588,144,H
2022-12-06T16:13:56Z,4j2ynmmd,serial-reaction-time,1,P,5,1,12,4321,0,3,398.9000000003726,443,H
2022-12-06T16:13:57Z,4j2ynmmd,serial-reaction-time,1,R,5,1,13,4321,0,3,347.40000000037253,433,H
2022-12-06T16:13:57Z,4j2ynmmd,serial-reaction-time,1,P,5,1,14,4321,0,2,306,332,H
2022-12-06T16:13:58Z,4j2ynmmd,serial-reaction-time,1,R,5,1,15,4321,0,3,385.0999999996274,323,T
2022-12-06T16:13:58Z,4j2ynmmd,serial-reaction-time,1,P,5,1,16,4321,0,1,407.5,231,H
2022-12-06T16:13:59Z,4j2ynmmd,serial-reaction-time,1,R,5,1,17,4321,0,4,348.1000000005588,314,L
2022-12-06T16:13:59Z,4j2ynmmd,serial-reaction-time,1,P,5,1,18,4321,0,4,384.6000000005588,144,H
2022-12-06T16:14:00Z,4j2ynmmd,serial-reaction-time,1,R,5,1,19,4321,0,1,396.20000000018626,441,L
2022-12-06T16:14:00Z,4j2ynmmd,serial-reaction-time,1,P,5,1,20,4321,0,3,380.79999999981374,413,H
2022-12-06T16:14:01Z,4j2ynmmd,serial-reaction-time,1,R,5,1,21,4321,0,1,451.70000000018626,131,T
2022-12-06T16:14:01Z,4j2ynmmd,serial-reaction-time,1,P,5,1,22,4321,0,2,417,312,H
2022-12-06T16:14:02Z,4j2ynmmd,serial-reaction-time,1,R,5,1,23,4321,0,3,372.5999999996274,123,L
2022-12-06T16:14:02Z,4j2ynmmd,serial-reaction-time,1,P,5,1,24,4321,0,1,342.70000000018626,231,H
2022-12-06T16:14:03Z,4j2ynmmd,serial-reaction-time,1,R,5,1,25,4321,0,1,371.79999999981374,311,L
2022-12-06T16:14:03Z,4j2ynmmd,serial-reaction-time,1,P,5,1,26,4321,0,4,336.19999999925494,114,H
2022-12-06T16:14:04Z,4j2ynmmd,serial-reaction-time,1,R,5,1,27,4321,0,2,417.5,142,L
2022-12-06T16:14:04Z,4j2ynmmd,serial-reaction-time,1,P,5,1,28,4321,0,3,309.29999999981374,423,H
2022-12-06T16:14:05Z,4j2ynmmd,serial-reaction-time,1,R,5,1,29,4321,0,3,356.40000000037253,233,L
2022-12-06T16:14:05Z,4j2ynmmd,serial-reaction-time,1,P,5,1,30,4321,0,2,388.6000000005588,332,H
2022-12-06T16:14:06Z,4j2ynmmd,serial-reaction-time,1,R,5,1,31,4321,0,1,365.5,321,L
2022-12-06T16:14:06Z,4j2ynmmd,serial-reaction-time,1,P,5,1,32,4321,0,1,360.8999999994412,211,H
2022-12-06T16:14:07Z,4j2ynmmd,serial-reaction-time,1,R,5,1,33,4321,0,4,395.29999999981374,114,H
2022-12-06T16:14:07Z,4j2ynmmd,serial-reaction-time,1,P,5,1,34,4321,0,4,368.70000000018626,144,H
2022-12-06T16:14:08Z,4j2ynmmd,serial-reaction-time,1,R,5,1,35,4321,0,2,351.5,442,L
2022-12-06T16:14:08Z,4j2ynmmd,serial-reaction-time,1,P,5,1,36,4321,0,3,339.40000000037253,423,H
2022-12-06T16:14:09Z,4j2ynmmd,serial-reaction-time,1,R,5,1,37,4321,0,3,345.19999999925494,233,L
2022-12-06T16:14:09Z,4j2ynmmd,serial-reaction-time,1,P,5,1,38,4321,0,2,331.70000000018626,332,H
2022-12-06T16:14:10Z,4j2ynmmd,serial-reaction-time,1,R,5,1,39,4321,0,4,425.1000000005588,324,L
2022-12-06T16:14:10Z,4j2ynmmd,serial-reaction-time,1,P,5,1,40,4321,0,1,333.59999999962747,241,H
2022-12-06T16:14:11Z,4j2ynmmd,serial-reaction-time,1,R,5,1,41,4321,0,4,466.5,414,T
2022-12-06T16:14:11Z,4j2ynmmd,serial-reaction-time,1,P,5,1,42,4321,0,4,355.70000000018626,144,H
2022-12-06T16:14:12Z,4j2ynmmd,serial-reaction-time,NA,R,5,1,43,4321,0,2,302.40000000037253,442,L
2022-12-06T16:14:12Z,4j2ynmmd,serial-reaction-time,1,R,5,0,43,4321,0,2,396.4000000003726,442,L
2022-12-06T16:14:12Z,4j2ynmmd,serial-reaction-time,1,P,5,1,44,4321,0,3,344.09999999962747,423,H
2022-12-06T16:14:13Z,4j2ynmmd,serial-reaction-time,1,R,5,1,45,4321,0,3,349.19999999925494,233,L
2022-12-06T16:14:14Z,4j2ynmmd,serial-reaction-time,1,P,5,1,46,4321,0,2,435.5,332,H
2022-12-06T16:14:14Z,4j2ynmmd,serial-reaction-time,1,R,5,1,47,4321,0,3,393.4000000003726,323,T
2022-12-06T16:14:15Z,4j2ynmmd,serial-reaction-time,1,P,5,1,48,4321,0,1,334.20000000018626,231,H
2022-12-06T16:14:15Z,4j2ynmmd,serial-reaction-time,1,R,5,1,49,4321,0,2,378.29999999981374,312,H
2022-12-06T16:14:16Z,4j2ynmmd,serial-reaction-time,1,P,5,1,50,4321,0,4,357.5,124,H
2022-12-06T16:14:16Z,4j2ynmmd,serial-reaction-time,NA,R,5,1,51,4321,0,2,415.4000000003726,242,T
2022-12-06T16:14:16Z,4j2ynmmd,serial-reaction-time,1,R,5,0,51,4321,0,2,415.70000000018626,242,T
2022-12-06T16:14:17Z,4j2ynmmd,serial-reaction-time,1,P,5,1,52,4321,0,3,366.20000000018626,423,H
2022-12-06T16:14:17Z,4j2ynmmd,serial-reaction-time,1,R,5,1,53,4321,0,4,386.5,234,L
2022-12-06T16:14:18Z,4j2ynmmd,serial-reaction-time,1,P,5,1,54,4321,0,2,374.79999999981374,342,H
2022-12-06T16:14:18Z,4j2ynmmd,serial-reaction-time,1,R,5,1,55,4321,0,4,465.29999999981374,424,T
2022-12-06T16:14:19Z,4j2ynmmd,serial-reaction-time,NA,P,5,1,56,4321,0,1,288.70000000018626,241,H
2022-12-06T16:14:19Z,4j2ynmmd,serial-reaction-time,1,P,5,0,56,4321,0,1,652.2000000001863,241,H
2022-12-06T16:14:20Z,4j2ynmmd,serial-reaction-time,1,R,5,1,57,4321,0,4,446.1000000005588,414,T
2022-12-06T16:14:20Z,4j2ynmmd,serial-reaction-time,1,P,5,1,58,4321,0,4,392.79999999981374,144,H
2022-12-06T16:14:21Z,4j2ynmmd,serial-reaction-time,1,R,5,1,59,4321,0,4,428.6000000005588,444,R
2022-12-06T16:14:21Z,4j2ynmmd,serial-reaction-time,1,P,5,1,60,4321,0,3,391.69999999925494,443,H
2022-12-06T16:14:22Z,4j2ynmmd,serial-reaction-time,1,R,5,1,61,4321,0,3,368.29999999981374,433,H
2022-12-06T16:14:22Z,4j2ynmmd,serial-reaction-time,1,P,5,1,62,4321,0,2,354.8999999994412,332,H
2022-12-06T16:14:23Z,4j2ynmmd,serial-reaction-time,1,R,5,1,63,4321,0,1,328.79999999981374,321,L
2022-12-06T16:14:23Z,4j2ynmmd,serial-reaction-time,1,P,5,1,64,4321,0,1,380.20000000018626,211,H
2022-12-06T16:14:24Z,4j2ynmmd,serial-reaction-time,1,R,5,1,65,4321,0,4,350.6000000005588,114,H
2022-12-06T16:14:24Z,4j2ynmmd,serial-reaction-time,1,P,5,1,66,4321,0,4,333.29999999981374,144,H
2022-12-06T16:14:25Z,4j2ynmmd,serial-reaction-time,1,R,5,1,67,4321,0,1,353,441,L
2022-12-06T16:14:25Z,4j2ynmmd,serial-reaction-time,1,P,5,1,68,4321,0,3,340.19999999925494,413,H
2022-12-06T16:14:26Z,4j2ynmmd,serial-reaction-time,1,R,5,1,69,4321,0,4,445.69999999925494,134,H
2022-12-06T16:14:26Z,4j2ynmmd,serial-reaction-time,1,P,5,1,70,4321,0,2,324.20000000018626,342,H
2022-12-06T16:14:27Z,4j2ynmmd,serial-reaction-time,1,R,5,1,71,4321,0,3,331.20000000018626,423,H
2022-12-06T16:14:27Z,4j2ynmmd,serial-reaction-time,1,P,5,1,72,4321,0,1,343.79999999981374,231,H
2022-12-06T16:14:28Z,4j2ynmmd,serial-reaction-time,1,R,5,1,73,4321,0,2,374.9000000003726,312,H
2022-12-06T16:14:28Z,4j2ynmmd,serial-reaction-time,1,P,5,1,74,4321,0,4,445.29999999981374,124,H
2022-12-06T16:14:29Z,4j2ynmmd,serial-reaction-time,1,R,5,1,75,4321,0,2,328.20000000018626,242,T
2022-12-06T16:14:29Z,4j2ynmmd,serial-reaction-time,NA,P,5,1,76,4321,0,3,312,423,H
2022-12-06T16:14:29Z,4j2ynmmd,serial-reaction-time,1,P,5,0,76,4321,0,3,421.5999999996274,423,H
2022-12-06T16:14:30Z,4j2ynmmd,serial-reaction-time,1,R,5,1,77,4321,0,1,350.3999999994412,231,H
2022-12-06T16:14:30Z,4j2ynmmd,serial-reaction-time,1,P,5,1,78,4321,0,2,462.79999999981374,312,H
2022-12-06T16:14:31Z,4j2ynmmd,serial-reaction-time,1,R,5,1,79,4321,0,1,366.4000000003726,121,T
2022-12-06T16:14:31Z,4j2ynmmd,serial-reaction-time,1,P,5,1,80,4321,0,1,333.79999999981374,211,H
2022-12-06T16:14:36Z,4j2ynmmd,html-keyboard-response,NA,NA,NA,NA,NA,NA,NA,NA,NA,NA,NA
2022-12-06T16:14:39Z,4j2ynmmd,html-keyboard-response,NA,NA,NA,NA,NA,NA,NA,NA,NA,NA,NA
2022-12-06T16:14:40Z,4j2ynmmd,fullscreen,NA,NA,NA,NA,NA,NA,NA,NA,NA,NA,NA
2022-12-06T20:34:37Z,decnc028,fullscreen,NA,NA,NA,NA,NA,NA,NA,NA,NA,NA,NA
2022-12-06T20:34:38Z,decnc028,html-keyboard-response,NA,NA,NA,NA,NA,NA,NA,NA,NA,NA,NA
2022-12-06T20:34:39Z,decnc028,serial-reaction-time,1,R,1,1,1,4321,0,3,634.3000000119209,3,X
2022-12-06T20:34:40Z,decnc028,serial-reaction-time,1,P,1,1,2,4321,0,4,732.7999999821186,34,X
2022-12-06T20:34:41Z,decnc028,serial-reaction-time,1,R,1,1,3,4321,0,4,408.800000011921,344,L
2022-12-06T20:34:42Z,decnc028,serial-reaction-time,1,P,1,1,4,4321,0,3,1119.300000011921,443,H
2022-12-06T20:34:42Z,decnc028,serial-reaction-time,1,R,1,1,5,4321,0,2,387.40000000596046,432,L
2022-12-06T20:34:43Z,decnc028,serial-reaction-time,1,P,1,1,6,4321,0,2,258.7000000178814,322,H
2022-12-06T20:34:43Z,decnc028,serial-reaction-time,NA,R,1,1,7,4321,0,3,305.59999999403954,223,L
2022-12-06T20:34:43Z,decnc028,serial-reaction-time,1,R,1,0,7,4321,0,3,308.19999998807907,223,L
2022-12-06T20:34:44Z,decnc028,serial-reaction-time,1,P,1,1,8,4321,0,1,445.59999999403954,231,H
2022-12-06T20:34:44Z,decnc028,serial-reaction-time,1,R,1,1,9,4321,0,3,335.2999999821186,313,T
2022-12-06T20:34:45Z,decnc028,serial-reaction-time,1,P,1,1,10,4321,0,4,283.2999999821186,134,H
2022-12-06T20:34:45Z,decnc028,serial-reaction-time,1,R,1,1,11,4321,0,1,339.10000002384186,341,L
2022-12-06T20:34:46Z,decnc028,serial-reaction-time,1,P,1,1,12,4321,0,3,324.09999999403954,413,H
2022-12-06T20:34:46Z,decnc028,serial-reaction-time,1,R,1,1,13,4321,0,4,288,134,H
2022-12-06T20:34:46Z,decnc028,serial-reaction-time,1,P,1,1,14,4321,0,2,305.90000000596046,342,H
2022-12-06T20:34:47Z,decnc028,serial-reaction-time,NA,R,1,1,15,4321,0,1,256.5,421,L
2022-12-06T20:34:47Z,decnc028,serial-reaction-time,1,R,1,0,15,4321,0,1,380.09999999403954,421,L
2022-12-06T20:34:47Z,decnc028,serial-reaction-time,1,P,1,1,16,4321,0,1,383.7000000178814,211,H
2022-12-06T20:34:48Z,decnc028,serial-reaction-time,1,R,1,1,17,4321,0,1,248.9000000059605,111,R
2022-12-06T20:34:48Z,decnc028,serial-reaction-time,1,P,1,1,18,4321,0,4,283,114,H
2022-12-06T20:34:49Z,decnc028,serial-reaction-time,1,R,1,1,19,4321,0,4,327.40000000596046,144,H
2022-12-06T20:34:49Z,decnc028,serial-reaction-time,1,P,1,1,20,4321,0,3,271.90000000596046,443,H
2022-12-06T20:34:49Z,decnc028,serial-reaction-time,NA,R,1,1,21,4321,0,2,278.09999999403954,432,L
2022-12-06T20:34:50Z,decnc028,serial-reaction-time,1,R,1,0,21,4321,0,2,344.09999999403954,432,L
2022-12-06T20:34:50Z,decnc028,serial-reaction-time,1,P,1,1,22,4321,0,2,243.19999998807907,322,H
2022-12-06T20:34:50Z,decnc028,serial-reaction-time,1,R,1,1,23,4321,0,4,367.59999999403954,224,L
2022-12-06T20:34:51Z,decnc028,serial-reaction-time,1,P,1,1,24,4321,0,1,295.80000001192093,241,H
2022-12-06T20:34:51Z,decnc028,serial-reaction-time,1,R,1,1,25,4321,0,1,291.7999999821186,411,L
2022-12-06T20:34:52Z,decnc028,serial-reaction-time,1,P,1,1,26,4321,0,4,382.2999999821186,114,H
2022-12-06T20:34:52Z,decnc028,serial-reaction-time,1,R,1,1,27,4321,0,3,367.800000011921,143,L
2022-12-06T20:34:53Z,decnc028,serial-reaction-time,1,P,1,1,28,4321,0,3,278,433,H
2022-12-06T20:34:53Z,decnc028,serial-reaction-time,NA,R,1,1,29,4321,0,2,344.40000000596046,332,H
2022-12-06T20:34:53Z,decnc028,serial-reaction-time,1,R,1,0,29,4321,0,2,385.800000011921,332,H
2022-12-06T20:34:54Z,decnc028,serial-reaction-time,1,P,1,1,30,4321,0,2,265.40000000596046,322,H
2022-12-06T20:34:54Z,decnc028,serial-reaction-time,1,R,1,1,31,4321,0,2,340.09999999403954,222,R
2022-12-06T20:34:54Z,decnc028,serial-reaction-time,NA,P,1,1,32,4321,0,1,302.80000001192093,221,H
2022-12-06T20:34:55Z,decnc028,serial-reaction-time,1,P,1,0,32,4321,0,1,426.5,221,H
2022-12-06T20:34:55Z,decnc028,serial-reaction-time,NA,R,1,1,33,4321,0,3,67.60000002384186,213,L
2022-12-06T20:34:55Z,decnc028,serial-reaction-time,1,R,1,0,33,4321,0,3,345.10000002384186,213,L
2022-12-06T20:34:56Z,decnc028,serial-reaction-time,1,P,1,1,34,4321,0,4,441.09999999403954,134,H
2022-12-06T20:34:56Z,decnc028,serial-reaction-time,NA,R,1,1,35,4321,0,2,269.90000000596046,342,H
2022-12-06T20:34:56Z,decnc028,serial-reaction-time,NA,R,1,0,35,4321,0,2,375.60000002384186,342,H
2022-12-06T20:34:56Z,decnc028,serial-reaction-time,1,R,1,0,35,4321,0,2,652.2000000178814,342,H
2022-12-06T20:34:57Z,decnc028,serial-reaction-time,1,P,1,1,36,4321,0,3,321.30000001192093,423,H
2022-12-06T20:34:57Z,decnc028,serial-reaction-time,1,R,1,1,37,4321,0,2,402.7999999821186,232,T
2022-12-06T20:34:58Z,decnc028,serial-reaction-time,1,P,1,1,38,4321,0,2,266.90000000596046,322,H
2022-12-06T20:34:58Z,decnc028,serial-reaction-time,1,R,1,1,39,4321,0,4,297.80000001192093,224,L
2022-12-06T20:34:59Z,decnc028,serial-reaction-time,1,P,1,1,40,4321,0,1,405.40000000596046,241,H
2022-12-06T20:34:59Z,decnc028,serial-reaction-time,NA,R,1,1,41,4321,0,4,333.2999999821186,414,T
2022-12-06T20:34:59Z,decnc028,serial-reaction-time,1,R,1,0,41,4321,0,4,400.0999999642372,414,T
2022-12-06T20:35:00Z,decnc028,serial-reaction-time,1,P,1,1,42,4321,0,4,348.5,144,H
2022-12-06T20:35:00Z,decnc028,serial-reaction-time,1,R,1,1,43,4321,0,4,337.09999999403954,444,R
2022-12-06T20:35:01Z,decnc028,serial-reaction-time,1,P,1,1,44,4321,0,3,583.6999999880791,443,H
2022-12-06T20:35:01Z,decnc028,serial-reaction-time,1,R,1,1,45,4321,0,3,307.5,433,H
2022-12-06T20:35:02Z,decnc028,serial-reaction-time,1,P,1,1,46,4321,0,2,516.5,332,H
2022-12-06T20:35:03Z,decnc028,serial-reaction-time,1,R,1,1,47,4321,0,1,375.59999999403954,321,L
2022-12-06T20:35:03Z,decnc028,serial-reaction-time,1,P,1,1,48,4321,0,1,276.59999999403954,211,H
2022-12-06T20:35:04Z,decnc028,serial-reaction-time,1,R,1,1,49,4321,0,2,415,112,L
2022-12-06T20:35:04Z,decnc028,serial-reaction-time,NA,P,1,1,50,4321,0,4,267.40000000596046,124,H
2022-12-06T20:35:04Z,decnc028,serial-reaction-time,1,P,1,0,50,4321,0,4,490.800000011921,124,H
2022-12-06T20:35:05Z,decnc028,serial-reaction-time,1,R,1,1,51,4321,0,2,394.2000000178814,242,T
2022-12-06T20:35:05Z,decnc028,serial-reaction-time,NA,P,1,1,52,4321,0,3,341,423,H
2022-12-06T20:35:06Z,decnc028,serial-reaction-time,1,P,1,0,52,4321,0,3,670.6999999880791,423,H
2022-12-06T20:35:06Z,decnc028,serial-reaction-time,1,R,1,1,53,4321,0,2,445.90000000596046,232,T
2022-12-06T20:35:07Z,decnc028,serial-reaction-time,1,P,1,1,54,4321,0,2,373.2000000178814,322,H
2022-12-06T20:35:07Z,decnc028,serial-reaction-time,1,R,1,1,55,4321,0,2,313.59999999403954,222,R
2022-12-06T20:35:08Z,decnc028,serial-reaction-time,1,P,1,1,56,4321,0,1,407.2000000178814,221,H
2022-12-06T20:35:08Z,decnc028,serial-reaction-time,1,R,1,1,57,4321,0,1,271.80000001192093,211,H
2022-12-06T20:35:08Z,decnc028,serial-reaction-time,1,P,1,1,58,4321,0,4,369.199999988079,114,H
2022-12-06T20:35:09Z,decnc028,serial-reaction-time,1,R,1,1,59,4321,0,1,395.199999988079,141,T
2022-12-06T20:35:10Z,decnc028,serial-reaction-time,1,P,1,1,60,4321,0,3,462.39999997615814,413,H
2022-12-06T20:35:10Z,decnc028,serial-reaction-time,NA,R,1,1,61,4321,0,1,303.40000000596046,131,T
2022-12-06T20:35:10Z,decnc028,serial-reaction-time,1,R,1,0,61,4321,0,1,352.40000000596046,131,T
2022-12-06T20:35:11Z,decnc028,serial-reaction-time,1,P,1,1,62,4321,0,2,428.7000000178814,312,H
2022-12-06T20:35:11Z,decnc028,serial-reaction-time,1,R,1,1,63,4321,0,3,442.2000000178814,123,L
2022-12-06T20:35:12Z,decnc028,serial-reaction-time,1,P,1,1,64,4321,0,1,372,231,H
2022-12-06T20:35:12Z,decnc028,serial-reaction-time,1,R,1,1,65,4321,0,1,351.40000000596046,311,L
2022-12-06T20:35:13Z,decnc028,serial-reaction-time,1,P,1,1,66,4321,0,4,364.59999999403954,114,H
2022-12-06T20:35:13Z,decnc028,serial-reaction-time,1,R,1,1,67,4321,0,2,426.199999988079,142,L
2022-12-06T20:35:14Z,decnc028,serial-reaction-time,1,P,1,1,68,4321,0,3,432.7000000178814,423,H
2022-12-06T20:35:14Z,decnc028,serial-reaction-time,1,R,1,1,69,4321,0,1,390.5,231,H
2022-12-06T20:35:15Z,decnc028,serial-reaction-time,1,P,1,1,70,4321,0,2,525.1000000238419,312,H
2022-12-06T20:35:15Z,decnc028,serial-reaction-time,1,R,1,1,71,4321,0,3,350,123,L
2022-12-06T20:35:16Z,decnc028,serial-reaction-time,NA,P,1,1,72,4321,0,1,363.199999988079,231,H
2022-12-06T20:35:16Z,decnc028,serial-reaction-time,1,P,1,0,72,4321,0,1,737.1999999880791,231,H
2022-12-06T20:35:17Z,decnc028,serial-reaction-time,1,R,1,1,73,4321,0,4,420.59999999403954,314,L
2022-12-06T20:35:17Z,decnc028,serial-reaction-time,1,P,1,1,74,4321,0,4,283,144,H
2022-12-06T20:35:18Z,decnc028,serial-reaction-time,1,R,1,1,75,4321,0,2,332.59999999403954,442,L
2022-12-06T20:35:18Z,decnc028,serial-reaction-time,1,P,1,1,76,4321,0,3,410.2999999821186,423,H
2022-12-06T20:35:19Z,decnc028,serial-reaction-time,1,R,1,1,77,4321,0,4,422.90000000596046,234,L
2022-12-06T20:35:19Z,decnc028,serial-reaction-time,1,P,1,1,78,4321,0,2,514.9000000059605,342,H
2022-12-06T20:35:20Z,decnc028,serial-reaction-time,1,R,1,1,79,4321,0,3,365.40000000596046,423,H
2022-12-06T20:35:20Z,decnc028,serial-reaction-time,1,P,1,1,80,4321,0,1,306.09999999403954,231,H
2022-12-06T20:35:25Z,decnc028,html-keyboard-response,NA,NA,NA,NA,NA,NA,NA,NA,NA,NA,NA
2022-12-06T20:35:26Z,decnc028,html-keyboard-response,NA,NA,NA,NA,NA,NA,NA,NA,NA,NA,NA
2022-12-06T20:35:27Z,decnc028,serial-reaction-time,1,R,2,1,1,4321,0,1,413,1,X
2022-12-06T20:35:28Z,decnc028,serial-reaction-time,1,P,2,1,2,4321,0,4,346.09999999403954,14,X
2022-12-06T20:35:28Z,decnc028,serial-reaction-time,1,R,2,1,3,4321,0,4,278,144,H
2022-12-06T20:35:29Z,decnc028,serial-reaction-time,1,P,2,1,4,4321,0,3,368.7000000178814,443,H
2022-12-06T20:35:29Z,decnc028,serial-reaction-time,1,R,2,1,5,4321,0,3,253,433,H
2022-12-06T20:35:30Z,decnc028,serial-reaction-time,1,P,2,1,6,4321,0,2,310.09999999403954,332,H
2022-12-06T20:35:30Z,decnc028,serial-reaction-time,1,R,2,1,7,4321,0,4,331.90000000596046,324,L
2022-12-06T20:35:30Z,decnc028,serial-reaction-time,1,P,2,1,8,4321,0,1,266.59999999403954,241,H
2022-12-06T20:35:31Z,decnc028,serial-reaction-time,1,R,2,1,9,4321,0,3,323.5,413,H
2022-12-06T20:35:31Z,decnc028,serial-reaction-time,1,P,2,1,10,4321,0,4,298,134,H
2022-12-06T20:35:32Z,decnc028,serial-reaction-time,NA,R,2,1,11,4321,0,4,219.10000002384183,344,L
2022-12-06T20:35:32Z,decnc028,serial-reaction-time,1,R,2,0,11,4321,0,4,578.2000000178814,344,L
2022-12-06T20:35:32Z,decnc028,serial-reaction-time,NA,P,2,1,12,4321,0,3,387,443,H
2022-12-06T20:35:33Z,decnc028,serial-reaction-time,1,P,2,0,12,4321,0,3,416.2000000178814,443,H
2022-12-06T20:35:33Z,decnc028,serial-reaction-time,1,R,2,1,13,4321,0,1,329.59999999403954,431,L
2022-12-06T20:35:34Z,decnc028,serial-reaction-time,1,P,2,1,14,4321,0,2,423.800000011921,312,H
2022-12-06T20:35:34Z,decnc028,serial-reaction-time,1,R,2,1,15,4321,0,2,338.10000002384186,122,L
2022-12-06T20:35:34Z,decnc028,serial-reaction-time,1,P,2,1,16,4321,0,1,357.2999999821186,221,H
2022-12-06T20:35:35Z,decnc028,serial-reaction-time,1,R,2,1,17,4321,0,2,387.5,212,T
2022-12-06T20:35:36Z,decnc028,serial-reaction-time,NA,P,2,1,18,4321,0,4,365.59999999403954,124,H
2022-12-06T20:35:36Z,decnc028,serial-reaction-time,1,P,2,0,18,4321,0,4,634.4000000059605,124,H
2022-12-06T20:35:36Z,decnc028,serial-reaction-time,1,R,2,1,19,4321,0,3,331.90000000596046,243,L
2022-12-06T20:35:37Z,decnc028,serial-reaction-time,1,P,2,1,20,4321,0,3,307.60000002384186,433,H
2022-12-06T20:35:37Z,decnc028,serial-reaction-time,1,R,2,1,21,4321,0,3,322,333,R
2022-12-06T20:35:38Z,decnc028,serial-reaction-time,1,P,2,1,22,4321,0,2,368.40000000596046,332,H
2022-12-06T20:35:38Z,decnc028,serial-reaction-time,1,R,2,1,23,4321,0,4,337.30000001192093,324,L
2022-12-06T20:35:39Z,decnc028,serial-reaction-time,1,P,2,1,24,4321,0,1,369.7999999821186,241,H
2022-12-06T20:35:39Z,decnc028,serial-reaction-time,1,R,2,1,25,4321,0,1,298.09999999403954,411,L
2022-12-06T20:35:39Z,decnc028,serial-reaction-time,NA,P,2,1,26,4321,0,4,271.5,114,H
2022-12-06T20:35:40Z,decnc028,serial-reaction-time,1,P,2,0,26,4321,0,4,531.6999999880791,114,H
2022-12-06T20:35:40Z,decnc028,serial-reaction-time,1,R,2,1,27,4321,0,2,271.2000000178814,142,L
2022-12-06T20:35:41Z,decnc028,serial-reaction-time,NA,P,2,1,28,4321,0,3,322.2999999821186,423,H
2022-12-06T20:35:41Z,decnc028,serial-reaction-time,1,P,2,0,28,4321,0,3,351.59999999403954,423,H
2022-12-06T20:35:41Z,decnc028,serial-reaction-time,NA,R,2,1,29,4321,0,2,349.40000000596046,232,T
2022-12-06T20:35:41Z,decnc028,serial-reaction-time,1,R,2,0,29,4321,0,2,704.2000000178814,232,T
2022-12-06T20:35:42Z,decnc028,serial-reaction-time,1,P,2,1,30,4321,0,2,314.59999999403954,322,H
2022-12-06T20:35:42Z,decnc028,serial-reaction-time,1,R,2,1,31,4321,0,2,349.2999999821186,222,R
2022-12-06T20:35:43Z,decnc028,serial-reaction-time,1,P,2,1,32,4321,0,1,352.59999999403954,221,H
2022-12-06T20:35:43Z,decnc028,serial-reaction-time,1,R,2,1,33,4321,0,1,294.5,211,H
2022-12-06T20:35:44Z,decnc028,serial-reaction-time,1,P,2,1,34,4321,0,4,560.5999999940395,114,H
2022-12-06T20:35:44Z,decnc028,serial-reaction-time,1,R,2,1,35,4321,0,1,391.40000000596046,141,T
2022-12-06T20:35:45Z,decnc028,serial-reaction-time,1,P,2,1,36,4321,0,3,413.5,413,H
2022-12-06T20:35:46Z,decnc028,serial-reaction-time,1,R,2,1,37,4321,0,1,509.59999999403954,131,T
2022-12-06T20:35:46Z,decnc028,serial-reaction-time,1,P,2,1,38,4321,0,2,491.59999999403954,312,H
2022-12-06T20:35:47Z,decnc028,serial-reaction-time,1,R,2,1,39,4321,0,3,328.40000000596046,123,L
2022-12-06T20:35:47Z,decnc028,serial-reaction-time,NA,P,2,1,40,4321,0,1,216.19999998807907,231,H
2022-12-06T20:35:47Z,decnc028,serial-reaction-time,1,P,2,0,40,4321,0,1,498.2999999821186,231,H
2022-12-06T20:35:48Z,decnc028,serial-reaction-time,1,R,2,1,41,4321,0,2,456.800000011921,312,H
2022-12-06T20:35:48Z,decnc028,serial-reaction-time,1,P,2,1,42,4321,0,4,339.09999999403954,124,H
2022-12-06T20:35:49Z,decnc028,serial-reaction-time,1,R,2,1,43,4321,0,1,361.90000000596046,241,H
2022-12-06T20:35:50Z,decnc028,serial-reaction-time,1,P,2,1,44,4321,0,3,612,413,H
2022-12-06T20:35:50Z,decnc028,serial-reaction-time,1,R,2,1,45,4321,0,4,292.2000000178814,134,H
2022-12-06T20:35:51Z,decnc028,serial-reaction-time,NA,P,2,1,46,4321,0,2,312.5,342,H
2022-12-06T20:35:51Z,decnc028,serial-reaction-time,1,P,2,0,46,4321,0,2,683.4000000059605,342,H
2022-12-06T20:35:52Z,decnc028,serial-reaction-time,1,R,2,1,47,4321,0,4,516.6999999880791,424,T
2022-12-06T20:35:52Z,decnc028,serial-reaction-time,1,P,2,1,48,4321,0,1,332.5,241,H
2022-12-06T20:35:52Z,decnc028,serial-reaction-time,1,R,2,1,49,4321,0,1,309,411,L
2022-12-06T20:35:53Z,decnc028,serial-reaction-time,1,P,2,1,50,4321,0,4,410.699999988079,114,H
2022-12-06T20:35:54Z,decnc028,serial-reaction-time,1,R,2,1,51,4321,0,2,434.800000011921,142,L
2022-12-06T20:35:54Z,decnc028,serial-reaction-time,NA,P,2,1,52,4321,0,3,471.59999999403954,423,H
2022-12-06T20:35:54Z,decnc028,serial-reaction-time,1,P,2,0,52,4321,0,3,676.5999999940395,423,H
2022-12-06T20:35:55Z,decnc028,serial-reaction-time,1,R,2,1,53,4321,0,2,463.09999999403954,232,T
2022-12-06T20:35:55Z,decnc028,serial-reaction-time,1,P,2,1,54,4321,0,2,295,322,H
2022-12-06T20:35:56Z,decnc028,serial-reaction-time,1,R,2,1,55,4321,0,1,323.30000001192093,221,H
2022-12-06T20:35:56Z,decnc028,serial-reaction-time,NA,P,2,1,56,4321,0,1,302.40000000596046,211,H
2022-12-06T20:35:57Z,decnc028,serial-reaction-time,1,P,2,0,56,4321,0,1,696.4000000059605,211,H
2022-12-06T20:35:57Z,decnc028,serial-reaction-time,1,R,2,1,57,4321,0,3,415,113,L
2022-12-06T20:35:58Z,decnc028,serial-reaction-time,1,P,2,1,58,4321,0,4,295.40000000596046,134,H
2022-12-06T20:35:58Z,decnc028,serial-reaction-time,1,R,2,1,59,4321,0,2,323.5,342,H
2022-12-06T20:35:59Z,decnc028,serial-reaction-time,1,P,2,1,60,4321,0,3,370.699999988079,423,H
2022-12-06T20:35:59Z,decnc028,serial-reaction-time,1,R,2,1,61,4321,0,3,283.59999999403954,233,L
2022-12-06T20:35:59Z,decnc028,serial-reaction-time,NA,P,2,1,62,4321,0,2,291.40000000596046,332,H
2022-12-06T20:36:00Z,decnc028,serial-reaction-time,1,P,2,0,62,4321,0,2,658.5999999940395,332,H
2022-12-06T20:36:00Z,decnc028,serial-reaction-time,1,R,2,1,63,4321,0,4,330.89999997615814,324,L
2022-12-06T20:36:01Z,decnc028,serial-reaction-time,1,P,2,1,64,4321,0,1,365.40000000596046,241,H
2022-12-06T20:36:01Z,decnc028,serial-reaction-time,1,R,2,1,65,4321,0,4,525.5,414,T
2022-12-06T20:36:02Z,decnc028,serial-reaction-time,1,P,2,1,66,4321,0,4,276.59999999403954,144,H
2022-12-06T20:36:03Z,decnc028,serial-reaction-time,1,R,2,1,67,4321,0,3,667,443,H
2022-12-06T20:36:03Z,decnc028,serial-reaction-time,1,P,2,1,68,4321,0,3,294.09999999403954,433,H
2022-12-06T20:36:03Z,decnc028,serial-reaction-time,1,R,2,1,69,4321,0,3,314.09999999403954,333,R
2022-12-06T20:36:04Z,decnc028,serial-reaction-time,1,P,2,1,70,4321,0,2,347.7000000178814,332,H
2022-12-06T20:36:04Z,decnc028,serial-reaction-time,1,R,2,1,71,4321,0,4,318.40000000596046,324,L
2022-12-06T20:36:05Z,decnc028,serial-reaction-time,1,P,2,1,72,4321,0,1,459.199999988079,241,H
2022-12-06T20:36:05Z,decnc028,serial-reaction-time,1,R,2,1,73,4321,0,1,338.90000000596046,411,L
2022-12-06T20:36:06Z,decnc028,serial-reaction-time,1,P,2,1,74,4321,0,4,395.5,114,H
2022-12-06T20:36:07Z,decnc028,serial-reaction-time,1,R,2,1,75,4321,0,3,518.6999999880791,143,L
2022-12-06T20:36:07Z,decnc028,serial-reaction-time,1,P,2,1,76,4321,0,3,236.7999999821186,433,H
2022-12-06T20:36:07Z,decnc028,serial-reaction-time,1,R,2,1,77,4321,0,3,321.5,333,R
2022-12-06T20:36:08Z,decnc028,serial-reaction-time,NA,P,2,1,78,4321,0,2,254.4000000059605,332,H
2022-12-06T20:36:08Z,decnc028,serial-reaction-time,1,P,2,0,78,4321,0,2,474.7999999821186,332,H
2022-12-06T20:36:08Z,decnc028,serial-reaction-time,1,R,2,1,79,4321,0,2,262.09999999403954,322,H
2022-12-06T20:36:09Z,decnc028,serial-reaction-time,NA,P,2,1,80,4321,0,1,294.7000000178814,221,H
2022-12-06T20:36:09Z,decnc028,serial-reaction-time,1,P,2,0,80,4321,0,1,556.6000000238419,221,H
2022-12-06T20:36:14Z,decnc028,html-keyboard-response,NA,NA,NA,NA,NA,NA,NA,NA,NA,NA,NA
2022-12-06T20:36:15Z,decnc028,html-keyboard-response,NA,NA,NA,NA,NA,NA,NA,NA,NA,NA,NA
2022-12-06T20:36:16Z,decnc028,serial-reaction-time,1,R,3,1,1,4321,0,3,408.40000000596046,3,X
2022-12-06T20:36:16Z,decnc028,serial-reaction-time,NA,P,3,1,2,4321,0,4,204,34,X
2022-12-06T20:36:17Z,decnc028,serial-reaction-time,1,P,3,0,2,4321,0,4,444.300000011921,34,X
2022-12-06T20:36:17Z,decnc028,serial-reaction-time,1,R,3,1,3,4321,0,4,272.09999999403954,344,L
2022-12-06T20:36:18Z,decnc028,serial-reaction-time,1,P,3,1,4,4321,0,3,607.0999999940395,443,H
2022-12-06T20:36:18Z,decnc028,serial-reaction-time,1,R,3,1,5,4321,0,4,340.7999999821186,434,T
