datetime,id,trial_type,correct,p_or_r,block,first_response,trial_number,sequence,is_practice,correct_pos,cumulative_rt,actual_triplet,triplet_type
2023-04-04T13:59:44Z,usnnjdm9,fullscreen,NA,NA,NA,NA,NA,NA,NA,NA,NA,NA,NA
2023-04-04T13:59:52Z,usnnjdm9,html-keyboard-response,NA,NA,NA,NA,NA,NA,NA,NA,NA,NA,NA
2023-04-04T13:59:54Z,usnnjdm9,serial-reaction-time,1,R,1,1,1,4321,0,4,417,4,X
2023-04-04T13:59:54Z,usnnjdm9,serial-reaction-time,1,P,1,1,2,4321,0,4,361,44,X
2023-04-04T13:59:55Z,usnnjdm9,serial-reaction-time,1,R,1,1,3,4321,0,1,412.69999999925494,441,L
2023-04-04T13:59:55Z,usnnjdm9,serial-reaction-time,1,P,1,1,4,4321,0,3,334.80000000074506,413,H
2023-04-04T13:59:56Z,usnnjdm9,serial-reaction-time,1,R,1,1,5,4321,0,4,349.80000000074506,134,H
2023-04-04T13:59:56Z,usnnjdm9,serial-reaction-time,1,P,1,1,6,4321,0,2,355.70000000298023,342,H
2023-04-04T13:59:57Z,usnnjdm9,serial-reaction-time,1,R,1,1,7,4321,0,4,353.0999999977648,424,T
2023-04-04T13:59:57Z,usnnjdm9,serial-reaction-time,1,P,1,1,8,4321,0,1,343.20000000298023,241,H
2023-04-04T13:59:58Z,usnnjdm9,serial-reaction-time,NA,R,1,1,9,4321,0,4,344.19999999925494,414,T
2023-04-04T13:59:58Z,usnnjdm9,serial-reaction-time,1,R,1,0,9,4321,0,4,412.8999999985099,414,T
2023-04-04T13:59:59Z,usnnjdm9,serial-reaction-time,1,P,1,1,10,4321,0,4,437.9000000022352,144,H
2023-04-04T13:59:59Z,usnnjdm9,serial-reaction-time,1,R,1,1,11,4321,0,1,370.4000000022352,441,L
2023-04-04T13:59:59Z,usnnjdm9,serial-reaction-time,1,P,1,1,12,4321,0,3,336,413,H
2023-04-04T14:00:00Z,usnnjdm9,serial-reaction-time,1,R,1,1,13,4321,0,1,309.30000000074506,131,T
2023-04-04T14:00:01Z,usnnjdm9,serial-reaction-time,NA,P,1,1,14,4321,0,2,459.3999999985099,312,H
2023-04-04T14:00:01Z,usnnjdm9,serial-reaction-time,1,P,1,0,14,4321,0,2,703.9999999962747,312,H
2023-04-04T14:00:01Z,usnnjdm9,serial-reaction-time,1,R,1,1,15,4321,0,2,338.69999999925494,122,L
2023-04-04T14:00:02Z,usnnjdm9,serial-reaction-time,1,P,1,1,16,4321,0,1,354.8999999985099,221,H
2023-04-04T14:00:02Z,usnnjdm9,serial-reaction-time,1,R,1,1,17,4321,0,3,337.8999999985099,213,L
2023-04-04T14:00:03Z,usnnjdm9,serial-reaction-time,1,P,1,1,18,4321,0,4,337.1000000014901,134,H
2023-04-04T14:00:03Z,usnnjdm9,serial-reaction-time,1,R,1,1,19,4321,0,4,303,344,L
2023-04-04T14:00:04Z,usnnjdm9,serial-reaction-time,1,P,1,1,20,4321,0,3,353.30000000074506,443,H
2023-04-04T14:00:04Z,usnnjdm9,serial-reaction-time,1,R,1,1,21,4321,0,4,346.6000000014901,434,T
2023-04-04T14:00:05Z,usnnjdm9,serial-reaction-time,1,P,1,1,22,4321,0,2,281.80000000074506,342,H
2023-04-04T14:00:05Z,usnnjdm9,serial-reaction-time,1,R,1,1,23,4321,0,1,320.69999999925494,421,L
2023-04-04T14:00:05Z,usnnjdm9,serial-reaction-time,1,P,1,1,24,4321,0,1,331,211,H
2023-04-04T14:00:06Z,usnnjdm9,serial-reaction-time,1,R,1,1,25,4321,0,1,301.30000000074506,111,R
2023-04-04T14:00:06Z,usnnjdm9,serial-reaction-time,1,P,1,1,26,4321,0,4,314,114,H
2023-04-04T14:00:07Z,usnnjdm9,serial-reaction-time,NA,R,1,1,27,4321,0,2,352.3999999985099,142,L
2023-04-04T14:00:07Z,usnnjdm9,serial-reaction-time,1,R,1,0,27,4321,0,2,607.3999999985099,142,L
2023-04-04T14:00:08Z,usnnjdm9,serial-reaction-time,1,P,1,1,28,4321,0,3,439.0999999977648,423,H
2023-04-04T14:00:08Z,usnnjdm9,serial-reaction-time,1,R,1,1,29,4321,0,2,344.6000000014901,232,T
2023-04-04T14:00:09Z,usnnjdm9,serial-reaction-time,1,P,1,1,30,4321,0,2,348.6000000014901,322,H
2023-04-04T14:00:09Z,usnnjdm9,serial-reaction-time,1,R,1,1,31,4321,0,4,326.20000000298023,224,L
2023-04-04T14:00:10Z,usnnjdm9,serial-reaction-time,1,P,1,1,32,4321,0,1,369.30000000074506,241,H
2023-04-04T14:00:10Z,usnnjdm9,serial-reaction-time,1,R,1,1,33,4321,0,1,450.79999999701977,411,L
2023-04-04T14:00:11Z,usnnjdm9,serial-reaction-time,1,P,1,1,34,4321,0,4,416.29999999701977,114,H
2023-04-04T14:00:11Z,usnnjdm9,serial-reaction-time,1,R,1,1,35,4321,0,2,397.70000000298023,142,L
2023-04-04T14:00:12Z,usnnjdm9,serial-reaction-time,1,P,1,1,36,4321,0,3,364.19999999925494,423,H
2023-04-04T14:00:12Z,usnnjdm9,serial-reaction-time,1,R,1,1,37,4321,0,1,330.1000000014901,231,H
2023-04-04T14:00:13Z,usnnjdm9,serial-reaction-time,1,P,1,1,38,4321,0,2,420.0999999977648,312,H
2023-04-04T14:00:13Z,usnnjdm9,serial-reaction-time,1,R,1,1,39,4321,0,3,537.5,123,L
2023-04-04T14:00:14Z,usnnjdm9,serial-reaction-time,NA,P,1,1,40,4321,0,1,279.3999999985099,231,H
2023-04-04T14:00:14Z,usnnjdm9,serial-reaction-time,1,P,1,0,40,4321,0,1,530.8000000007451,231,H
2023-04-04T14:00:15Z,usnnjdm9,serial-reaction-time,1,R,1,1,41,4321,0,1,366.19999999925494,311,L
2023-04-04T14:00:15Z,usnnjdm9,serial-reaction-time,1,P,1,1,42,4321,0,4,380.6000000014901,114,H
2023-04-04T14:00:16Z,usnnjdm9,serial-reaction-time,1,R,1,1,43,4321,0,4,305.5999999977648,144,H
2023-04-04T14:00:16Z,usnnjdm9,serial-reaction-time,NA,P,1,1,44,4321,0,3,314.8999999985099,443,H
2023-04-04T14:00:16Z,usnnjdm9,serial-reaction-time,1,P,1,0,44,4321,0,3,568.2999999970198,443,H
2023-04-04T14:00:17Z,usnnjdm9,serial-reaction-time,1,R,1,1,45,4321,0,2,366.5999999977648,432,L
2023-04-04T14:00:17Z,usnnjdm9,serial-reaction-time,1,P,1,1,46,4321,0,2,290.1000000014901,322,H
2023-04-04T14:00:18Z,usnnjdm9,serial-reaction-time,1,R,1,1,47,4321,0,1,336.8999999985099,221,H
2023-04-04T14:00:18Z,usnnjdm9,serial-reaction-time,1,P,1,1,48,4321,0,1,399.69999999925494,211,H
2023-04-04T14:00:19Z,usnnjdm9,serial-reaction-time,1,R,1,1,49,4321,0,4,405.70000000298023,114,H
2023-04-04T14:00:19Z,usnnjdm9,serial-reaction-time,1,P,1,1,50,4321,0,4,366.19999999925494,144,H
2023-04-04T14:00:20Z,usnnjdm9,serial-reaction-time,1,R,1,1,51,4321,0,1,370.3999999985099,441,L
2023-04-04T14:00:20Z,usnnjdm9,serial-reaction-time,NA,P,1,1,52,4321,0,3,371.0999999977648,413,H
2023-04-04T14:00:21Z,usnnjdm9,serial-reaction-time,1,P,1,0,52,4321,0,3,663.7999999970198,413,H
2023-04-04T14:00:21Z,usnnjdm9,serial-reaction-time,1,R,1,1,53,4321,0,4,389.29999999701977,134,H
2023-04-04T14:00:22Z,usnnjdm9,serial-reaction-time,1,P,1,1,54,4321,0,2,351.29999999701977,342,H
2023-04-04T14:00:22Z,usnnjdm9,serial-reaction-time,1,R,1,1,55,4321,0,2,351.80000000074506,422,L
2023-04-04T14:00:22Z,usnnjdm9,serial-reaction-time,1,P,1,1,56,4321,0,1,313.6000000014901,221,H
2023-04-04T14:00:23Z,usnnjdm9,serial-reaction-time,1,R,1,1,57,4321,0,3,364.80000000074506,213,L
2023-04-04T14:00:24Z,usnnjdm9,serial-reaction-time,1,P,1,1,58,4321,0,4,391.19999999925494,134,H
2023-04-04T14:00:24Z,usnnjdm9,serial-reaction-time,1,R,1,1,59,4321,0,3,349.80000000074506,343,T
2023-04-04T14:00:24Z,usnnjdm9,serial-reaction-time,1,P,1,1,60,4321,0,3,339.1000000014901,433,H
2023-04-04T14:00:25Z,usnnjdm9,serial-reaction-time,1,R,1,1,61,4321,0,4,341,334,L
2023-04-04T14:00:25Z,usnnjdm9,serial-reaction-time,1,P,1,1,62,4321,0,2,411.80000000074506,342,H
2023-04-04T14:00:26Z,usnnjdm9,serial-reaction-time,1,R,1,1,63,4321,0,4,332.79999999701977,424,T
2023-04-04T14:00:26Z,usnnjdm9,serial-reaction-time,1,P,1,1,64,4321,0,1,382.6000000014901,241,H
2023-04-04T14:00:27Z,usnnjdm9,serial-reaction-time,1,R,1,1,65,4321,0,4,381.19999999925494,414,T
2023-04-04T14:00:27Z,usnnjdm9,serial-reaction-time,1,P,1,1,66,4321,0,4,334.5,144,H
2023-04-04T14:00:28Z,usnnjdm9,serial-reaction-time,1,R,1,1,67,4321,0,1,407,441,L
2023-04-04T14:00:28Z,usnnjdm9,serial-reaction-time,1,P,1,1,68,4321,0,3,383,413,H
2023-04-04T14:00:29Z,usnnjdm9,serial-reaction-time,1,R,1,1,69,4321,0,2,444.30000000074506,132,L
2023-04-04T14:00:29Z,usnnjdm9,serial-reaction-time,1,P,1,1,70,4321,0,2,261,322,H
2023-04-04T14:00:30Z,usnnjdm9,serial-reaction-time,1,R,1,1,71,4321,0,4,306.1000000014901,224,L
2023-04-04T14:00:30Z,usnnjdm9,serial-reaction-time,1,P,1,1,72,4321,0,1,304.6000000014901,241,H
2023-04-04T14:00:31Z,usnnjdm9,serial-reaction-time,1,R,1,1,73,4321,0,3,415.8999999985099,413,H
2023-04-04T14:00:31Z,usnnjdm9,serial-reaction-time,1,P,1,1,74,4321,0,4,369.8999999985099,134,H
2023-04-04T14:00:32Z,usnnjdm9,serial-reaction-time,1,R,1,1,75,4321,0,1,263.5,341,L
2023-04-04T14:00:32Z,usnnjdm9,serial-reaction-time,1,P,1,1,76,4321,0,3,318.79999999701977,413,H
2023-04-04T14:00:33Z,usnnjdm9,serial-reaction-time,1,R,1,1,77,4321,0,4,360.5,134,H
2023-04-04T14:00:33Z,usnnjdm9,serial-reaction-time,1,P,1,1,78,4321,0,2,370.80000000074506,342,H
2023-04-04T14:00:34Z,usnnjdm9,serial-reaction-time,1,R,1,1,79,4321,0,3,389.69999999925494,423,H
2023-04-04T14:00:34Z,usnnjdm9,serial-reaction-time,1,P,1,1,80,4321,0,1,265.19999999925494,231,H
2023-04-04T14:00:39Z,usnnjdm9,html-keyboard-response,NA,NA,NA,NA,NA,NA,NA,NA,NA,NA,NA
2023-04-04T14:01:04Z,usnnjdm9,html-keyboard-response,NA,NA,NA,NA,NA,NA,NA,NA,NA,NA,NA
2023-04-04T14:01:05Z,usnnjdm9,serial-reaction-time,1,R,2,1,1,4321,0,1,319.0999999977648,1,X
2023-04-04T14:01:06Z,usnnjdm9,serial-reaction-time,1,P,2,1,2,4321,0,4,326.70000000298023,14,X
2023-04-04T14:01:06Z,usnnjdm9,serial-reaction-time,1,R,2,1,3,4321,0,1,270.69999999925494,141,T
2023-04-04T14:01:07Z,usnnjdm9,serial-reaction-time,1,P,2,1,4,4321,0,3,340.30000000074506,413,H
2023-04-04T14:01:07Z,usnnjdm9,serial-reaction-time,1,R,2,1,5,4321,0,2,338.69999999925494,132,L
2023-04-04T14:01:07Z,usnnjdm9,serial-reaction-time,1,P,2,1,6,4321,0,2,283,322,H
2023-04-04T14:01:08Z,usnnjdm9,serial-reaction-time,1,R,2,1,7,4321,0,2,304.4000000022352,222,R
2023-04-04T14:01:08Z,usnnjdm9,serial-reaction-time,1,P,2,1,8,4321,0,1,312.19999999925494,221,H
2023-04-04T14:01:09Z,usnnjdm9,serial-reaction-time,1,R,2,1,9,4321,0,1,255.30000000074503,211,H
2023-04-04T14:01:09Z,usnnjdm9,serial-reaction-time,1,P,2,1,10,4321,0,4,320.20000000298023,114,H
2023-04-04T14:01:10Z,usnnjdm9,serial-reaction-time,NA,R,2,1,11,4321,0,2,310.4000000022352,142,L
2023-04-04T14:01:10Z,usnnjdm9,serial-reaction-time,1,R,2,0,11,4321,0,2,621.9000000022352,142,L
2023-04-04T14:01:10Z,usnnjdm9,serial-reaction-time,1,P,2,1,12,4321,0,3,389.80000000074506,423,H
2023-04-04T14:01:11Z,usnnjdm9,serial-reaction-time,1,R,2,1,13,4321,0,4,293.30000000074506,234,L
2023-04-04T14:01:12Z,usnnjdm9,serial-reaction-time,1,P,2,1,14,4321,0,2,508.80000000074506,342,H
2023-04-04T14:01:12Z,usnnjdm9,serial-reaction-time,1,R,2,1,15,4321,0,4,337,424,T
2023-04-04T14:01:12Z,usnnjdm9,serial-reaction-time,1,P,2,1,16,4321,0,1,324,241,H
2023-04-04T14:01:13Z,usnnjdm9,serial-reaction-time,1,R,2,1,17,4321,0,1,252.10000000149012,411,L
2023-04-04T14:01:13Z,usnnjdm9,serial-reaction-time,1,P,2,1,18,4321,0,4,340.69999999925494,114,H
2023-04-04T14:01:14Z,usnnjdm9,serial-reaction-time,1,R,2,1,19,4321,0,2,318.9000000022352,142,L
2023-04-04T14:01:14Z,usnnjdm9,serial-reaction-time,1,P,2,1,20,4321,0,3,325.8999999985099,423,H
2023-04-04T14:01:15Z,usnnjdm9,serial-reaction-time,1,R,2,1,21,4321,0,4,317.19999999925494,234,L
2023-04-04T14:01:15Z,usnnjdm9,serial-reaction-time,NA,P,2,1,22,4321,0,2,360.8999999985099,342,H
2023-04-04T14:01:15Z,usnnjdm9,serial-reaction-time,1,P,2,0,22,4321,0,2,553.7999999970198,342,H
2023-04-04T14:01:16Z,usnnjdm9,serial-reaction-time,1,R,2,1,23,4321,0,3,299.5,423,H
2023-04-04T14:01:16Z,usnnjdm9,serial-reaction-time,1,P,2,1,24,4321,0,1,305.0999999977648,231,H
2023-04-04T14:01:17Z,usnnjdm9,serial-reaction-time,1,R,2,1,25,4321,0,4,358.0999999977648,314,L
2023-04-04T14:01:17Z,usnnjdm9,serial-reaction-time,1,P,2,1,26,4321,0,4,277.5999999977648,144,H
2023-04-04T14:01:18Z,usnnjdm9,serial-reaction-time,1,R,2,1,27,4321,0,1,314.80000000074506,441,L
2023-04-04T14:01:18Z,usnnjdm9,serial-reaction-time,1,P,2,1,28,4321,0,3,299.5,413,H
2023-04-04T14:01:18Z,usnnjdm9,serial-reaction-time,1,R,2,1,29,4321,0,1,295.0999999977648,131,T
2023-04-04T14:01:19Z,usnnjdm9,serial-reaction-time,1,P,2,1,30,4321,0,2,425.6000000014901,312,H
2023-04-04T14:01:19Z,usnnjdm9,serial-reaction-time,1,R,2,1,31,4321,0,2,274.19999999925494,122,L
2023-04-04T14:01:20Z,usnnjdm9,serial-reaction-time,1,P,2,1,32,4321,0,1,304.30000000074506,221,H
2023-04-04T14:01:20Z,usnnjdm9,serial-reaction-time,1,R,2,1,33,4321,0,1,319.80000000074506,211,H
2023-04-04T14:01:21Z,usnnjdm9,serial-reaction-time,1,P,2,1,34,4321,0,4,373.9000000022352,114,H
2023-04-04T14:01:21Z,usnnjdm9,serial-reaction-time,1,R,2,1,35,4321,0,4,271,144,H
2023-04-04T14:01:22Z,usnnjdm9,serial-reaction-time,1,P,2,1,36,4321,0,3,387.5999999977648,443,H
2023-04-04T14:01:22Z,usnnjdm9,serial-reaction-time,1,R,2,1,37,4321,0,1,324.5,431,L
2023-04-04T14:01:23Z,usnnjdm9,serial-reaction-time,1,P,2,1,38,4321,0,2,393.69999999925494,312,H
2023-04-04T14:01:23Z,usnnjdm9,serial-reaction-time,1,R,2,1,39,4321,0,1,420.0999999977648,121,T
2023-04-04T14:01:24Z,usnnjdm9,serial-reaction-time,1,P,2,1,40,4321,0,1,308.30000000074506,211,H
2023-04-04T14:01:24Z,usnnjdm9,serial-reaction-time,1,R,2,1,41,4321,0,1,321.19999999925494,111,R
2023-04-04T14:01:25Z,usnnjdm9,serial-reaction-time,1,P,2,1,42,4321,0,4,350.19999999925494,114,H
2023-04-04T14:01:25Z,usnnjdm9,serial-reaction-time,NA,R,2,1,43,4321,0,3,247.80000000074503,143,L
2023-04-04T14:01:25Z,usnnjdm9,serial-reaction-time,1,R,2,0,43,4321,0,3,533.9000000022352,143,L
2023-04-04T14:01:26Z,usnnjdm9,serial-reaction-time,1,P,2,1,44,4321,0,3,316.6000000014901,433,H
2023-04-04T14:01:26Z,usnnjdm9,serial-reaction-time,1,R,2,1,45,4321,0,4,397.30000000074506,334,L
2023-04-04T14:01:27Z,usnnjdm9,serial-reaction-time,1,P,2,1,46,4321,0,2,324.5999999977648,342,H
2023-04-04T14:01:27Z,usnnjdm9,serial-reaction-time,1,R,2,1,47,4321,0,3,299.8999999985099,423,H
2023-04-04T14:01:28Z,usnnjdm9,serial-reaction-time,1,P,2,1,48,4321,0,1,293.1000000014901,231,H
2023-04-04T14:01:28Z,usnnjdm9,serial-reaction-time,1,R,2,1,49,4321,0,4,365.3999999985099,314,L
2023-04-04T14:01:28Z,usnnjdm9,serial-reaction-time,1,P,2,1,50,4321,0,4,268.19999999925494,144,H
2023-04-04T14:01:29Z,usnnjdm9,serial-reaction-time,1,R,2,1,51,4321,0,1,260.6000000014901,441,L
2023-04-04T14:01:29Z,usnnjdm9,serial-reaction-time,1,P,2,1,52,4321,0,3,314.1000000014901,413,H
2023-04-04T14:01:30Z,usnnjdm9,serial-reaction-time,1,R,2,1,53,4321,0,2,325.5999999977648,132,L
2023-04-04T14:01:30Z,usnnjdm9,serial-reaction-time,1,P,2,1,54,4321,0,2,300.6000000014901,322,H
2023-04-04T14:01:31Z,usnnjdm9,serial-reaction-time,1,R,2,1,55,4321,0,4,291.80000000074506,224,L
2023-04-04T14:01:31Z,usnnjdm9,serial-reaction-time,1,P,2,1,56,4321,0,1,229.59999999776483,241,H
2023-04-04T14:01:31Z,usnnjdm9,serial-reaction-time,1,R,2,1,57,4321,0,2,287.30000000074506,412,L
2023-04-04T14:01:32Z,usnnjdm9,serial-reaction-time,NA,P,2,1,58,4321,0,4,213.19999999925497,124,H
2023-04-04T14:01:32Z,usnnjdm9,serial-reaction-time,1,P,2,0,58,4321,0,4,395,124,H
2023-04-04T14:01:32Z,usnnjdm9,serial-reaction-time,NA,R,2,1,59,4321,0,4,364.9000000022352,244,L
2023-04-04T14:01:33Z,usnnjdm9,serial-reaction-time,1,R,2,0,59,4321,0,4,415.80000000447035,244,L
2023-04-04T14:01:33Z,usnnjdm9,serial-reaction-time,1,P,2,1,60,4321,0,3,416.80000000074506,443,H
2023-04-04T14:01:34Z,usnnjdm9,serial-reaction-time,1,R,2,1,61,4321,0,2,345.19999999925494,432,L
2023-04-04T14:01:34Z,usnnjdm9,serial-reaction-time,1,P,2,1,62,4321,0,2,302.0999999977648,322,H
2023-04-04T14:01:34Z,usnnjdm9,serial-reaction-time,1,R,2,1,63,4321,0,1,280.0999999977648,221,H
2023-04-04T14:01:35Z,usnnjdm9,serial-reaction-time,1,P,2,1,64,4321,0,1,313.80000000074506,211,H
2023-04-04T14:01:35Z,usnnjdm9,serial-reaction-time,1,R,2,1,65,4321,0,3,308.80000000074506,113,L
2023-04-04T14:01:36Z,usnnjdm9,serial-reaction-time,1,P,2,1,66,4321,0,4,358,134,H
2023-04-04T14:01:36Z,usnnjdm9,serial-reaction-time,1,R,2,1,67,4321,0,1,344.5,341,L
2023-04-04T14:01:37Z,usnnjdm9,serial-reaction-time,1,P,2,1,68,4321,0,3,361,413,H
2023-04-04T14:01:37Z,usnnjdm9,serial-reaction-time,1,R,2,1,69,4321,0,1,296.0999999977648,131,T
2023-04-04T14:01:38Z,usnnjdm9,serial-reaction-time,1,P,2,1,70,4321,0,2,446.9000000022352,312,H
2023-04-04T14:01:38Z,usnnjdm9,serial-reaction-time,1,R,2,1,71,4321,0,3,412.9000000022352,123,L
2023-04-04T14:01:39Z,usnnjdm9,serial-reaction-time,1,P,2,1,72,4321,0,1,289.5,231,H
2023-04-04T14:01:39Z,usnnjdm9,serial-reaction-time,1,R,2,1,73,4321,0,4,366,314,L
2023-04-04T14:01:40Z,usnnjdm9,serial-reaction-time,1,P,2,1,74,4321,0,4,304.1000000014901,144,H
2023-04-04T14:01:40Z,usnnjdm9,serial-reaction-time,1,R,2,1,75,4321,0,3,369.80000000074506,443,H
2023-04-04T14:01:41Z,usnnjdm9,serial-reaction-time,1,P,2,1,76,4321,0,3,282.5,433,H
2023-04-04T14:01:41Z,usnnjdm9,serial-reaction-time,1,R,2,1,77,4321,0,4,374,334,L
2023-04-04T14:01:42Z,usnnjdm9,serial-reaction-time,1,P,2,1,78,4321,0,2,372.80000000074506,342,H
2023-04-04T14:01:42Z,usnnjdm9,serial-reaction-time,1,R,2,1,79,4321,0,1,340.9000000022352,421,L
2023-04-04T14:01:43Z,usnnjdm9,serial-reaction-time,1,P,2,1,80,4321,0,1,289,211,H
2023-04-04T14:01:48Z,usnnjdm9,html-keyboard-response,NA,NA,NA,NA,NA,NA,NA,NA,NA,NA,NA
2023-04-04T14:01:55Z,usnnjdm9,html-keyboard-response,NA,NA,NA,NA,NA,NA,NA,NA,NA,NA,NA
2023-04-04T14:01:57Z,usnnjdm9,serial-reaction-time,1,R,3,1,1,4321,0,3,419.5,3,X
2023-04-04T14:01:57Z,usnnjdm9,serial-reaction-time,NA,P,3,1,2,4321,0,4,291.8999999985099,34,X
2023-04-04T14:01:57Z,usnnjdm9,serial-reaction-time,1,P,3,0,2,4321,0,4,528.8999999985099,34,X
2023-04-04T14:01:58Z,usnnjdm9,serial-reaction-time,1,R,3,1,3,4321,0,3,274.30000000074506,343,T
2023-04-04T14:01:58Z,usnnjdm9,serial-reaction-time,1,P,3,1,4,4321,0,3,266.6000000014901,433,H
2023-04-04T14:01:58Z,usnnjdm9,serial-reaction-time,1,R,3,1,5,4321,0,1,285.19999999925494,331,L
2023-04-04T14:01:59Z,usnnjdm9,serial-reaction-time,1,P,3,1,6,4321,0,2,384.29999999701977,312,H
2023-04-04T14:01:59Z,usnnjdm9,serial-reaction-time,1,R,3,1,7,4321,0,2,270.5,122,L
2023-04-04T14:02:00Z,usnnjdm9,serial-reaction-time,1,P,3,1,8,4321,0,1,289.5,221,H
2023-04-04T14:02:00Z,usnnjdm9,serial-reaction-time,1,R,3,1,9,4321,0,1,310.5999999977648,211,H
2023-04-04T14:02:01Z,usnnjdm9,serial-reaction-time,1,P,3,1,10,4321,0,4,329.30000000074506,114,H
2023-04-04T14:02:01Z,usnnjdm9,serial-reaction-time,NA,R,3,1,11,4321,0,2,283.79999999701977,142,L
2023-04-04T14:02:01Z,usnnjdm9,serial-reaction-time,1,R,3,0,11,4321,0,2,567.5999999977648,142,L
2023-04-04T14:02:02Z,usnnjdm9,serial-reaction-time,1,P,3,1,12,4321,0,3,319,423,H
2023-04-04T14:02:02Z,usnnjdm9,serial-reaction-time,1,R,3,1,13,4321,0,3,257.69999999925494,233,L
2023-04-04T14:02:03Z,usnnjdm9,serial-reaction-time,1,P,3,1,14,4321,0,2,360.6000000014901,332,H
2023-04-04T14:02:03Z,usnnjdm9,serial-reaction-time,NA,R,3,1,15,4321,0,3,341,323,T
2023-04-04T14:02:04Z,usnnjdm9,serial-reaction-time,1,R,3,0,15,4321,0,3,631.3000000007451,323,T
2023-04-04T14:02:04Z,usnnjdm9,serial-reaction-time,1,P,3,1,16,4321,0,1,264.69999999925494,231,H
2023-04-04T14:02:04Z,usnnjdm9,serial-reaction-time,1,R,3,1,17,4321,0,4,402.6000000014901,314,L
2023-04-04T14:02:05Z,usnnjdm9,serial-reaction-time,1,P,3,1,18,4321,0,4,274.5,144,H
2023-04-04T14:02:05Z,usnnjdm9,serial-reaction-time,1,R,3,1,19,4321,0,2,324.69999999925494,442,L
2023-04-04T14:02:06Z,usnnjdm9,serial-reaction-time,1,P,3,1,20,4321,0,3,312.20000000298023,423,H
2023-04-04T14:02:06Z,usnnjdm9,serial-reaction-time,1,R,3,1,21,4321,0,2,325,232,T
2023-04-04T14:02:07Z,usnnjdm9,serial-reaction-time,1,P,3,1,22,4321,0,2,269.5,322,H
2023-04-04T14:02:07Z,usnnjdm9,serial-reaction-time,1,R,3,1,23,4321,0,4,297.80000000074506,224,L
2023-04-04T14:02:08Z,usnnjdm9,serial-reaction-time,1,P,3,1,24,4321,0,1,338.19999999925494,241,H
2023-04-04T14:02:08Z,usnnjdm9,serial-reaction-time,NA,R,3,1,25,4321,0,3,254.19999999925497,413,H
2023-04-04T14:02:08Z,usnnjdm9,serial-reaction-time,1,R,3,0,25,4321,0,3,555.6000000014901,413,H
2023-04-04T14:02:09Z,usnnjdm9,serial-reaction-time,1,P,3,1,26,4321,0,4,463.6000000014901,134,H
2023-04-04T14:02:09Z,usnnjdm9,serial-reaction-time,1,R,3,1,27,4321,0,1,310.0999999977648,341,L
2023-04-04T14:02:10Z,usnnjdm9,serial-reaction-time,NA,P,3,1,28,4321,0,3,304.5,413,H
2023-04-04T14:02:10Z,usnnjdm9,serial-reaction-time,1,P,3,0,28,4321,0,3,382.1000000014901,413,H
2023-04-04T14:02:10Z,usnnjdm9,serial-reaction-time,1,R,3,1,29,4321,0,4,344.9000000022352,134,H
2023-04-04T14:02:11Z,usnnjdm9,serial-reaction-time,1,P,3,1,30,4321,0,2,563.6999999992549,342,H
2023-04-04T14:02:11Z,usnnjdm9,serial-reaction-time,NA,R,3,1,31,4321,0,3,269.3999999985099,423,H
2023-04-04T14:02:12Z,usnnjdm9,serial-reaction-time,1,R,3,0,31,4321,0,3,390.5999999977648,423,H
2023-04-04T14:02:12Z,usnnjdm9,serial-reaction-time,1,P,3,1,32,4321,0,1,297.0999999977648,231,H
2023-04-04T14:02:12Z,usnnjdm9,serial-reaction-time,1,R,3,1,33,4321,0,1,354.5,311,L
2023-04-04T14:02:13Z,usnnjdm9,serial-reaction-time,1,P,3,1,34,4321,0,4,291.19999999925494,114,H
2023-04-04T14:02:13Z,usnnjdm9,serial-reaction-time,1,R,3,1,35,4321,0,1,270.3999999985099,141,T
2023-04-04T14:02:14Z,usnnjdm9,serial-reaction-time,1,P,3,1,36,4321,0,3,309.0999999977648,413,H
2023-04-04T14:02:14Z,usnnjdm9,serial-reaction-time,1,R,3,1,37,4321,0,1,291.6000000014901,131,T
2023-04-04T14:02:15Z,usnnjdm9,serial-reaction-time,NA,P,3,1,38,4321,0,2,331.69999999925494,312,H
2023-04-04T14:02:15Z,usnnjdm9,serial-reaction-time,1,P,3,0,38,4321,0,2,401.80000000074506,312,H
2023-04-04T14:02:15Z,usnnjdm9,serial-reaction-time,1,R,3,1,39,4321,0,1,340.3999999985099,121,T
2023-04-04T14:02:16Z,usnnjdm9,serial-reaction-time,1,P,3,1,40,4321,0,1,301.3999999985099,211,H
2023-04-04T14:02:16Z,usnnjdm9,serial-reaction-time,1,R,3,1,41,4321,0,4,288.4000000022352,114,H
2023-04-04T14:02:16Z,usnnjdm9,serial-reaction-time,1,P,3,1,42,4321,0,4,324.19999999925494,144,H
2023-04-04T14:02:17Z,usnnjdm9,serial-reaction-time,NA,R,3,1,43,4321,0,2,285,442,L
2023-04-04T14:02:17Z,usnnjdm9,serial-reaction-time,1,R,3,0,43,4321,0,2,548.3999999985099,442,L
2023-04-04T14:02:18Z,usnnjdm9,serial-reaction-time,1,P,3,1,44,4321,0,3,343.5,423,H
2023-04-04T14:02:18Z,usnnjdm9,serial-reaction-time,1,R,3,1,45,4321,0,1,299.8999999985099,231,H
2023-04-04T14:02:19Z,usnnjdm9,serial-reaction-time,1,P,3,1,46,4321,0,2,437.79999999701977,312,H
2023-04-04T14:02:19Z,usnnjdm9,serial-reaction-time,1,R,3,1,47,4321,0,4,353.69999999925494,124,H
2023-04-04T14:02:20Z,usnnjdm9,serial-reaction-time,1,P,3,1,48,4321,0,1,320.80000000074506,241,H
2023-04-04T14:02:20Z,usnnjdm9,serial-reaction-time,1,R,3,1,49,4321,0,1,289.19999999925494,411,L
2023-04-04T14:02:20Z,usnnjdm9,serial-reaction-time,NA,P,3,1,50,4321,0,4,319.5,114,H
2023-04-04T14:02:21Z,usnnjdm9,serial-reaction-time,1,P,3,0,50,4321,0,4,486.5,114,H
2023-04-04T14:02:21Z,usnnjdm9,serial-reaction-time,1,R,3,1,51,4321,0,1,388.5,141,T
2023-04-04T14:02:22Z,usnnjdm9,serial-reaction-time,1,P,3,1,52,4321,0,3,325.29999999701977,413,H
2023-04-04T14:02:22Z,usnnjdm9,serial-reaction-time,1,R,3,1,53,4321,0,4,359.5999999977648,134,H
2023-04-04T14:02:23Z,usnnjdm9,serial-reaction-time,NA,P,3,1,54,4321,0,2,423.19999999925494,342,H
2023-04-04T14:02:23Z,usnnjdm9,serial-reaction-time,1,P,3,0,54,4321,0,2,863.9999999962747,342,H
2023-04-04T14:02:24Z,usnnjdm9,serial-reaction-time,1,R,3,1,55,4321,0,4,306.19999999925494,424,T
2023-04-04T14:02:24Z,usnnjdm9,serial-reaction-time,1,P,3,1,56,4321,0,1,518.0999999977648,241,H
2023-04-04T14:02:25Z,usnnjdm9,serial-reaction-time,1,R,3,1,57,4321,0,1,376.69999999925494,411,L
2023-04-04T14:02:25Z,usnnjdm9,serial-reaction-time,1,P,3,1,58,4321,0,4,384.80000000074506,114,H
2023-04-04T14:02:26Z,usnnjdm9,serial-reaction-time,1,R,3,1,59,4321,0,2,394.6000000014901,142,L
2023-04-04T14:02:26Z,usnnjdm9,serial-reaction-time,1,P,3,1,60,4321,0,3,338.5,423,H
2023-04-04T14:02:27Z,usnnjdm9,serial-reaction-time,1,R,3,1,61,4321,0,3,338.9000000022352,233,L
2023-04-04T14:02:27Z,usnnjdm9,serial-reaction-time,1,P,3,1,62,4321,0,2,336.69999999925494,332,H
2023-04-04T14:02:28Z,usnnjdm9,serial-reaction-time,1,R,3,1,63,4321,0,2,347.69999999925494,322,H
2023-04-04T14:02:28Z,usnnjdm9,serial-reaction-time,1,P,3,1,64,4321,0,1,327.5,221,H
2023-04-04T14:02:29Z,usnnjdm9,serial-reaction-time,1,R,3,1,65,4321,0,4,378.80000000074506,214,L
2023-04-04T14:02:29Z,usnnjdm9,serial-reaction-time,1,P,3,1,66,4321,0,4,343.5,144,H
2023-04-04T14:02:30Z,usnnjdm9,serial-reaction-time,1,R,3,1,67,4321,0,3,403.80000000074506,443,H
2023-04-04T14:02:30Z,usnnjdm9,serial-reaction-time,1,P,3,1,68,4321,0,3,307.69999999925494,433,H
2023-04-04T14:02:31Z,usnnjdm9,serial-reaction-time,1,R,3,1,69,4321,0,1,328.80000000074506,331,L
2023-04-04T14:02:31Z,usnnjdm9,serial-reaction-time,1,P,3,1,70,4321,0,2,475,312,H
2023-04-04T14:02:32Z,usnnjdm9,serial-reaction-time,1,R,3,1,71,4321,0,2,278.80000000074506,122,L
2023-04-04T14:02:32Z,usnnjdm9,serial-reaction-time,1,P,3,1,72,4321,0,1,295.8999999985099,221,H
2023-04-04T14:02:33Z,usnnjdm9,serial-reaction-time,1,R,3,1,73,4321,0,2,385.5,212,T
2023-04-04T14:02:33Z,usnnjdm9,serial-reaction-time,1,P,3,1,74,4321,0,4,360.0999999977648,124,H
2023-04-04T14:02:33Z,usnnjdm9,serial-reaction-time,1,R,3,1,75,4321,0,1,330.30000000074506,241,H
2023-04-04T14:02:34Z,usnnjdm9,serial-reaction-time,1,P,3,1,76,4321,0,3,409.30000000074506,413,H
2023-04-04T14:02:34Z,usnnjdm9,serial-reaction-time,1,R,3,1,77,4321,0,1,283.3999999985099,131,T
2023-04-04T14:02:35Z,usnnjdm9,serial-reaction-time,1,P,3,1,78,4321,0,2,483.0999999977648,312,H
2023-04-04T14:02:36Z,usnnjdm9,serial-reaction-time,1,R,3,1,79,4321,0,3,298.80000000074506,123,L
2023-04-04T14:02:36Z,usnnjdm9,serial-reaction-time,1,P,3,1,80,4321,0,1,290.19999999925494,231,H
2023-04-04T14:02:41Z,usnnjdm9,html-keyboard-response,NA,NA,NA,NA,NA,NA,NA,NA,NA,NA,NA
2023-04-04T14:02:57Z,usnnjdm9,html-keyboard-response,NA,NA,NA,NA,NA,NA,NA,NA,NA,NA,NA
2023-04-04T14:02:58Z,usnnjdm9,serial-reaction-time,1,R,4,1,1,4321,0,3,343.8999999985099,3,X
2023-04-04T14:02:59Z,usnnjdm9,serial-reaction-time,1,P,4,1,2,4321,0,4,272.5,34,X
2023-04-04T14:02:59Z,usnnjdm9,serial-reaction-time,1,R,4,1,3,4321,0,1,272.5,341,L
2023-04-04T14:03:00Z,usnnjdm9,serial-reaction-time,1,P,4,1,4,4321,0,3,318.5,413,H
2023-04-04T14:03:00Z,usnnjdm9,serial-reaction-time,1,R,4,1,5,4321,0,1,294.6000000014901,131,T
2023-04-04T14:03:00Z,usnnjdm9,serial-reaction-time,NA,P,4,1,6,4321,0,2,298.5999999977648,312,H
2023-04-04T14:03:01Z,usnnjdm9,serial-reaction-time,1,P,4,0,6,4321,0,2,518.0999999977648,312,H
2023-04-04T14:03:01Z,usnnjdm9,serial-reaction-time,1,R,4,1,7,4321,0,2,351.4000000022352,122,L
2023-04-04T14:03:02Z,usnnjdm9,serial-reaction-time,1,P,4,1,8,4321,0,1,294.3999999985099,221,H
2023-04-04T14:03:02Z,usnnjdm9,serial-reaction-time,1,R,4,1,9,4321,0,3,364.19999999925494,213,L
2023-04-04T14:03:03Z,usnnjdm9,serial-reaction-time,1,P,4,1,10,4321,0,4,294,134,H
2023-04-04T14:03:03Z,usnnjdm9,serial-reaction-time,1,R,4,1,11,4321,0,4,279.5,344,L
2023-04-04T14:03:03Z,usnnjdm9,serial-reaction-time,1,P,4,1,12,4321,0,3,343.80000000074506,443,H
2023-04-04T14:03:04Z,usnnjdm9,serial-reaction-time,1,R,4,1,13,4321,0,2,301.79999999701977,432,L
2023-04-04T14:03:04Z,usnnjdm9,serial-reaction-time,1,P,4,1,14,4321,0,2,274.19999999925494,322,H
2023-04-04T14:03:05Z,usnnjdm9,serial-reaction-time,1,R,4,1,15,4321,0,4,309.69999999925494,224,L
2023-04-04T14:03:05Z,usnnjdm9,serial-reaction-time,1,P,4,1,16,4321,0,1,279.9000000022352,241,H
2023-04-04T14:03:06Z,usnnjdm9,serial-reaction-time,1,R,4,1,17,4321,0,4,315,414,T
2023-04-04T14:03:06Z,usnnjdm9,serial-reaction-time,1,P,4,1,18,4321,0,4,315.6000000014901,144,H
2023-04-04T14:03:06Z,usnnjdm9,serial-reaction-time,1,R,4,1,19,4321,0,4,292.8999999985099,444,R
2023-04-04T14:03:07Z,usnnjdm9,serial-reaction-time,1,P,4,1,20,4321,0,3,364.19999999925494,443,H
2023-04-04T14:03:07Z,usnnjdm9,serial-reaction-time,1,R,4,1,21,4321,0,2,269.6000000014901,432,L
2023-04-04T14:03:08Z,usnnjdm9,serial-reaction-time,1,P,4,1,22,4321,0,2,269.5,322,H
2023-04-04T14:03:08Z,usnnjdm9,serial-reaction-time,1,R,4,1,23,4321,0,3,344,223,L
2023-04-04T14:03:09Z,usnnjdm9,serial-reaction-time,1,P,4,1,24,4321,0,1,264.5,231,H
2023-04-04T14:03:09Z,usnnjdm9,serial-reaction-time,1,R,4,1,25,4321,0,3,364.29999999701977,313,T
2023-04-04T14:03:10Z,usnnjdm9,serial-reaction-time,NA,P,4,1,26,4321,0,4,259.3999999985099,134,H
2023-04-04T14:03:10Z,usnnjdm9,serial-reaction-time,1,P,4,0,26,4321,0,4,480,134,H
2023-04-04T14:03:10Z,usnnjdm9,serial-reaction-time,1,R,4,1,27,4321,0,4,324.19999999925494,344,L
2023-04-04T14:03:11Z,usnnjdm9,serial-reaction-time,1,P,4,1,28,4321,0,3,378.6000000014901,443,H
2023-04-04T14:03:11Z,usnnjdm9,serial-reaction-time,1,R,4,1,29,4321,0,1,285,431,L
2023-04-04T14:03:12Z,usnnjdm9,serial-reaction-time,1,P,4,1,30,4321,0,2,299.8999999985099,312,H
2023-04-04T14:03:12Z,usnnjdm9,serial-reaction-time,NA,R,4,1,31,4321,0,3,329,123,L
2023-04-04T14:03:12Z,usnnjdm9,serial-reaction-time,1,R,4,0,31,4321,0,3,421,123,L
2023-04-04T14:03:13Z,usnnjdm9,serial-reaction-time,1,P,4,1,32,4321,0,1,333,231,H
2023-04-04T14:03:13Z,usnnjdm9,serial-reaction-time,NA,R,4,1,33,4321,0,4,254.69999999925497,314,L
2023-04-04T14:03:13Z,usnnjdm9,serial-reaction-time,1,R,4,0,33,4321,0,4,500.29999999701977,314,L
2023-04-04T14:03:14Z,usnnjdm9,serial-reaction-time,1,P,4,1,34,4321,0,4,284.69999999925494,144,H
2023-04-04T14:03:14Z,usnnjdm9,serial-reaction-time,1,R,4,1,35,4321,0,3,352.80000000074506,443,H
2023-04-04T14:03:15Z,usnnjdm9,serial-reaction-time,1,P,4,1,36,4321,0,3,290.19999999925494,433,H
2023-04-04T14:03:15Z,usnnjdm9,serial-reaction-time,1,R,4,1,37,4321,0,1,319.69999999925494,331,L
2023-04-04T14:03:16Z,usnnjdm9,serial-reaction-time,1,P,4,1,38,4321,0,2,319.69999999925494,312,H
2023-04-04T14:03:16Z,usnnjdm9,serial-reaction-time,1,R,4,1,39,4321,0,3,368.5999999977648,123,L
2023-04-04T14:03:16Z,usnnjdm9,serial-reaction-time,1,P,4,1,40,4321,0,1,334.1000000014901,231,H
2023-04-04T14:03:17Z,usnnjdm9,serial-reaction-time,1,R,4,1,41,4321,0,2,401.29999999701977,312,H
2023-04-04T14:03:17Z,usnnjdm9,serial-reaction-time,1,P,4,1,42,4321,0,4,326,124,H
2023-04-04T14:03:18Z,usnnjdm9,serial-reaction-time,1,R,4,1,43,4321,0,2,293.20000000298023,242,T
2023-04-04T14:03:18Z,usnnjdm9,serial-reaction-time,1,P,4,1,44,4321,0,3,309,423,H
2023-04-04T14:03:19Z,usnnjdm9,serial-reaction-time,1,R,4,1,45,4321,0,3,308.69999999925494,233,L
2023-04-04T14:03:19Z,usnnjdm9,serial-reaction-time,NA,P,4,1,46,4321,0,2,288.5999999977648,332,H
2023-04-04T14:03:19Z,usnnjdm9,serial-reaction-time,1,P,4,0,46,4321,0,2,539.4999999962747,332,H
2023-04-04T14:03:20Z,usnnjdm9,serial-reaction-time,1,R,4,1,47,4321,0,1,393.3999999985099,321,L
2023-04-04T14:03:20Z,usnnjdm9,serial-reaction-time,1,P,4,1,48,4321,0,1,309.69999999925494,211,H
2023-04-04T14:03:21Z,usnnjdm9,serial-reaction-time,1,R,4,1,49,4321,0,3,313.79999999701977,113,L
2023-04-04T14:03:21Z,usnnjdm9,serial-reaction-time,1,P,4,1,50,4321,0,4,301.3999999985099,134,H
2023-04-04T14:03:22Z,usnnjdm9,serial-reaction-time,1,R,4,1,51,4321,0,4,303.5,344,L
2023-04-04T14:03:22Z,usnnjdm9,serial-reaction-time,1,P,4,1,52,4321,0,3,298.19999999925494,443,H
2023-04-04T14:03:23Z,usnnjdm9,serial-reaction-time,NA,R,4,1,53,4321,0,4,277.1000000014901,434,T
2023-04-04T14:03:23Z,usnnjdm9,serial-reaction-time,1,R,4,0,53,4321,0,4,427.6000000014901,434,T
2023-04-04T14:03:23Z,usnnjdm9,serial-reaction-time,1,P,4,1,54,4321,0,2,345,342,H
2023-04-04T14:03:24Z,usnnjdm9,serial-reaction-time,1,R,4,1,55,4321,0,1,313.3999999985099,421,L
2023-04-04T14:03:24Z,usnnjdm9,serial-reaction-time,1,P,4,1,56,4321,0,1,290.3999999985099,211,H
2023-04-04T14:03:25Z,usnnjdm9,serial-reaction-time,1,R,4,1,57,4321,0,4,287.5,114,H
2023-04-04T14:03:25Z,usnnjdm9,serial-reaction-time,1,P,4,1,58,4321,0,4,274.29999999701977,144,H
2023-04-04T14:03:25Z,usnnjdm9,serial-reaction-time,1,R,4,1,59,4321,0,1,340,441,L
2023-04-04T14:03:26Z,usnnjdm9,serial-reaction-time,1,P,4,1,60,4321,0,3,308.0999999977648,413,H
2023-04-04T14:03:26Z,usnnjdm9,serial-reaction-time,NA,R,4,1,61,4321,0,1,293.9000000022352,131,T
2023-04-04T14:03:26Z,usnnjdm9,serial-reaction-time,1,R,4,0,61,4321,0,1,332.20000000298023,131,T
2023-04-04T14:03:27Z,usnnjdm9,serial-reaction-time,1,P,4,1,62,4321,0,2,387.5,312,H
2023-04-04T14:03:27Z,usnnjdm9,serial-reaction-time,1,R,4,1,63,4321,0,4,314.30000000074506,124,H
2023-04-04T14:03:28Z,usnnjdm9,serial-reaction-time,1,P,4,1,64,4321,0,1,285.5,241,H
2023-04-04T14:03:28Z,usnnjdm9,serial-reaction-time,1,R,4,1,65,4321,0,1,298.8999999985099,411,L
2023-04-04T14:03:29Z,usnnjdm9,serial-reaction-time,1,P,4,1,66,4321,0,4,303.69999999925494,114,H
2023-04-04T14:03:29Z,usnnjdm9,serial-reaction-time,1,R,4,1,67,4321,0,1,319.4000000022352,141,T
2023-04-04T14:03:30Z,usnnjdm9,serial-reaction-time,1,P,4,1,68,4321,0,3,333.80000000074506,413,H
2023-04-04T14:03:30Z,usnnjdm9,serial-reaction-time,1,R,4,1,69,4321,0,2,330.30000000074506,132,L
2023-04-04T14:03:30Z,usnnjdm9,serial-reaction-time,1,P,4,1,70,4321,0,2,299.30000000074506,322,H
2023-04-04T14:03:31Z,usnnjdm9,serial-reaction-time,1,R,4,1,71,4321,0,1,317.6000000014901,221,H
2023-04-04T14:03:31Z,usnnjdm9,serial-reaction-time,1,P,4,1,72,4321,0,1,317.4000000022352,211,H
2023-04-04T14:03:32Z,usnnjdm9,serial-reaction-time,NA,R,4,1,73,4321,0,2,318.5999999977648,112,L
2023-04-04T14:03:32Z,usnnjdm9,serial-reaction-time,1,R,4,0,73,4321,0,2,524.2999999970198,112,L
2023-04-04T14:03:32Z,usnnjdm9,serial-reaction-time,1,P,4,1,74,4321,0,4,347.80000000074506,124,H
2023-04-04T14:03:33Z,usnnjdm9,serial-reaction-time,1,R,4,1,75,4321,0,4,320.69999999925494,244,L
2023-04-04T14:03:33Z,usnnjdm9,serial-reaction-time,1,P,4,1,76,4321,0,3,323.9000000022352,443,H
2023-04-04T14:03:34Z,usnnjdm9,serial-reaction-time,1,R,4,1,77,4321,0,1,334,431,L
2023-04-04T14:03:34Z,usnnjdm9,serial-reaction-time,1,P,4,1,78,4321,0,2,307.5999999977648,312,H
2023-04-04T14:03:35Z,usnnjdm9,serial-reaction-time,1,R,4,1,79,4321,0,1,332.5,121,T
2023-04-04T14:03:35Z,usnnjdm9,serial-reaction-time,1,P,4,1,80,4321,0,1,311.5,211,H
2023-04-04T14:03:40Z,usnnjdm9,html-keyboard-response,NA,NA,NA,NA,NA,NA,NA,NA,NA,NA,NA
2023-04-04T14:03:47Z,usnnjdm9,html-keyboard-response,NA,NA,NA,NA,NA,NA,NA,NA,NA,NA,NA
2023-04-04T14:03:49Z,usnnjdm9,serial-reaction-time,1,R,5,1,1,4321,0,4,352.5,4,X
2023-04-04T14:03:49Z,usnnjdm9,serial-reaction-time,1,P,5,1,2,4321,0,4,264.19999999925494,44,X
2023-04-04T14:03:50Z,usnnjdm9,serial-reaction-time,1,R,5,1,3,4321,0,1,309.8999999985099,441,L
2023-04-04T14:03:50Z,usnnjdm9,serial-reaction-time,1,P,5,1,4,4321,0,3,358.3999999985099,413,H
2023-04-04T14:03:51Z,usnnjdm9,serial-reaction-time,1,R,5,1,5,4321,0,3,254.19999999925497,133,L
2023-04-04T14:03:51Z,usnnjdm9,serial-reaction-time,NA,P,5,1,6,4321,0,2,285.69999999925494,332,H
2023-04-04T14:03:51Z,usnnjdm9,serial-reaction-time,1,P,5,0,6,4321,0,2,510.69999999925494,332,H
2023-04-04T14:03:52Z,usnnjdm9,serial-reaction-time,NA,R,5,1,7,4321,0,3,318.80000000074506,323,T
2023-04-04T14:03:52Z,usnnjdm9,serial-reaction-time,1,R,5,0,7,4321,0,3,377.30000000074506,323,T
2023-04-04T14:03:52Z,usnnjdm9,serial-reaction-time,1,P,5,1,8,4321,0,1,353.3999999985099,231,H
2023-04-04T14:03:53Z,usnnjdm9,serial-reaction-time,1,R,5,1,9,4321,0,3,263.69999999925494,313,T
2023-04-04T14:03:53Z,usnnjdm9,serial-reaction-time,1,P,5,1,10,4321,0,4,352.70000000298023,134,H
2023-04-04T14:03:54Z,usnnjdm9,serial-reaction-time,1,R,5,1,11,4321,0,1,358.19999999925494,341,L
2023-04-04T14:03:54Z,usnnjdm9,serial-reaction-time,1,P,5,1,12,4321,0,3,256.3999999985099,413,H
2023-04-04T14:03:55Z,usnnjdm9,serial-reaction-time,1,R,5,1,13,4321,0,2,388.3999999985099,132,L
2023-04-04T14:03:55Z,usnnjdm9,serial-reaction-time,1,P,5,1,14,4321,0,2,324.1000000014901,322,H
2023-04-04T14:03:55Z,usnnjdm9,serial-reaction-time,1,R,5,1,15,4321,0,2,310.4000000022352,222,R
2023-04-04T14:03:56Z,usnnjdm9,serial-reaction-time,1,P,5,1,16,4321,0,1,298.5,221,H
2023-04-04T14:03:56Z,usnnjdm9,serial-reaction-time,1,R,5,1,17,4321,0,4,364.19999999925494,214,L
2023-04-04T14:03:57Z,usnnjdm9,serial-reaction-time,1,P,5,1,18,4321,0,4,336,144,H
2023-04-04T14:03:57Z,usnnjdm9,serial-reaction-time,1,R,5,1,19,4321,0,2,348.30000000074506,442,L
2023-04-04T14:03:58Z,usnnjdm9,serial-reaction-time,1,P,5,1,20,4321,0,3,304.8999999985099,423,H
2023-04-04T14:03:58Z,usnnjdm9,serial-reaction-time,1,R,5,1,21,4321,0,4,307.19999999925494,234,L
2023-04-04T14:03:59Z,usnnjdm9,serial-reaction-time,1,P,5,1,22,4321,0,2,347.3999999985099,342,H
2023-04-04T14:03:59Z,usnnjdm9,serial-reaction-time,NA,R,5,1,23,4321,0,1,357.30000000074506,421,L
2023-04-04T14:03:59Z,usnnjdm9,serial-reaction-time,1,R,5,0,23,4321,0,1,358.4000000022352,421,L
2023-04-04T14:04:00Z,usnnjdm9,serial-reaction-time,1,P,5,1,24,4321,0,1,354.19999999925494,211,H
2023-04-04T14:04:00Z,usnnjdm9,serial-reaction-time,1,R,5,1,25,4321,0,4,317.29999999701977,114,H
2023-04-04T14:04:01Z,usnnjdm9,serial-reaction-time,1,P,5,1,26,4321,0,4,320.30000000074506,144,H
2023-04-04T14:04:01Z,usnnjdm9,serial-reaction-time,1,R,5,1,27,4321,0,4,296.19999999925494,444,R
2023-04-04T14:04:01Z,usnnjdm9,serial-reaction-time,1,P,5,1,28,4321,0,3,320.8999999985099,443,H
2023-04-04T14:04:02Z,usnnjdm9,serial-reaction-time,1,R,5,1,29,4321,0,2,337.8999999985099,432,L
2023-04-04T14:04:02Z,usnnjdm9,serial-reaction-time,1,P,5,1,30,4321,0,2,343.5,322,H
2023-04-04T14:04:03Z,usnnjdm9,serial-reaction-time,1,R,5,1,31,4321,0,3,364,223,L
2023-04-04T14:04:03Z,usnnjdm9,serial-reaction-time,1,P,5,1,32,4321,0,1,263.0999999977648,231,H
2023-04-04T14:04:04Z,usnnjdm9,serial-reaction-time,1,R,5,1,33,4321,0,3,298.69999999925494,313,T
2023-04-04T14:04:04Z,usnnjdm9,serial-reaction-time,1,P,5,1,34,4321,0,4,358.5,134,H
2023-04-04T14:04:05Z,usnnjdm9,serial-reaction-time,1,R,5,1,35,4321,0,2,326.3999999985099,342,H
2023-04-04T14:04:05Z,usnnjdm9,serial-reaction-time,1,P,5,1,36,4321,0,3,301.9000000022352,423,H
2023-04-04T14:04:06Z,usnnjdm9,serial-reaction-time,NA,R,5,1,37,4321,0,2,318.69999999925494,232,T
2023-04-04T14:04:06Z,usnnjdm9,serial-reaction-time,1,R,5,0,37,4321,0,2,612.6999999992549,232,T
2023-04-04T14:04:06Z,usnnjdm9,serial-reaction-time,1,P,5,1,38,4321,0,2,350.8999999985099,322,H
2023-04-04T14:04:07Z,usnnjdm9,serial-reaction-time,1,R,5,1,39,4321,0,2,330.9000000022352,222,R
2023-04-04T14:04:07Z,usnnjdm9,serial-reaction-time,1,P,5,1,40,4321,0,1,250.30000000074503,221,H
2023-04-04T14:04:08Z,usnnjdm9,serial-reaction-time,1,R,5,1,41,4321,0,4,350.69999999925494,214,L
2023-04-04T14:04:08Z,usnnjdm9,serial-reaction-time,1,P,5,1,42,4321,0,4,298.69999999925494,144,H
2023-04-04T14:04:09Z,usnnjdm9,serial-reaction-time,1,R,5,1,43,4321,0,3,314.19999999925494,443,H
2023-04-04T14:04:09Z,usnnjdm9,serial-reaction-time,1,P,5,1,44,4321,0,3,309.0999999977648,433,H
2023-04-04T14:04:09Z,usnnjdm9,serial-reaction-time,1,R,5,1,45,4321,0,2,333.70000000298023,332,H
2023-04-04T14:04:10Z,usnnjdm9,serial-reaction-time,1,P,5,1,46,4321,0,2,289.6000000014901,322,H
2023-04-04T14:04:10Z,usnnjdm9,serial-reaction-time,1,R,5,1,47,4321,0,3,343.5999999977648,223,L
2023-04-04T14:04:11Z,usnnjdm9,serial-reaction-time,1,P,5,1,48,4321,0,1,312.79999999701977,231,H
2023-04-04T14:04:11Z,usnnjdm9,serial-reaction-time,1,R,5,1,49,4321,0,2,395,312,H
2023-04-04T14:04:12Z,usnnjdm9,serial-reaction-time,NA,P,5,1,50,4321,0,4,328.3999999985099,124,H
2023-04-04T14:04:12Z,usnnjdm9,serial-reaction-time,1,P,5,0,50,4321,0,4,644.1999999992549,124,H
2023-04-04T14:04:13Z,usnnjdm9,serial-reaction-time,1,R,5,1,51,4321,0,2,275.0999999977648,242,T
2023-04-04T14:04:13Z,usnnjdm9,serial-reaction-time,1,P,5,1,52,4321,0,3,397.80000000074506,423,H
2023-04-04T14:04:14Z,usnnjdm9,serial-reaction-time,1,R,5,1,53,4321,0,3,355.80000000074506,233,L
2023-04-04T14:04:14Z,usnnjdm9,serial-reaction-time,1,P,5,1,54,4321,0,2,358.5,332,H
2023-04-04T14:04:15Z,usnnjdm9,serial-reaction-time,1,R,5,1,55,4321,0,1,365.4000000022352,321,L
2023-04-04T14:04:15Z,usnnjdm9,serial-reaction-time,1,P,5,1,56,4321,0,1,305.30000000074506,211,H
2023-04-04T14:04:16Z,usnnjdm9,serial-reaction-time,1,R,5,1,57,4321,0,2,426.5,112,L
2023-04-04T14:04:16Z,usnnjdm9,serial-reaction-time,1,P,5,1,58,4321,0,4,302.5,124,H
2023-04-04T14:04:17Z,usnnjdm9,serial-reaction-time,1,R,5,1,59,4321,0,1,391.8999999985099,241,H
2023-04-04T14:04:17Z,usnnjdm9,serial-reaction-time,1,P,5,1,60,4321,0,3,346.5999999977648,413,H
2023-04-04T14:04:18Z,usnnjdm9,serial-reaction-time,1,R,5,1,61,4321,0,2,367.5,132,L
2023-04-04T14:04:18Z,usnnjdm9,serial-reaction-time,1,P,5,1,62,4321,0,2,319.19999999925494,322,H
2023-04-04T14:04:18Z,usnnjdm9,serial-reaction-time,1,R,5,1,63,4321,0,4,353.19999999925494,224,L
2023-04-04T14:04:19Z,usnnjdm9,serial-reaction-time,1,P,5,1,64,4321,0,1,277.3999999985099,241,H
2023-04-04T14:04:19Z,usnnjdm9,serial-reaction-time,1,R,5,1,65,4321,0,2,287.80000000074506,412,L
2023-04-04T14:04:20Z,usnnjdm9,serial-reaction-time,NA,P,5,1,66,4321,0,4,357.1000000014901,124,H
2023-04-04T14:04:20Z,usnnjdm9,serial-reaction-time,1,P,5,0,66,4321,0,4,452.4000000022352,124,H
2023-04-04T14:04:20Z,usnnjdm9,serial-reaction-time,1,R,5,1,67,4321,0,4,404.19999999925494,244,L
2023-04-04T14:04:21Z,usnnjdm9,serial-reaction-time,1,P,5,1,68,4321,0,3,353.9000000022352,443,H
2023-04-04T14:04:21Z,usnnjdm9,serial-reaction-time,1,R,5,1,69,4321,0,4,347.8999999985099,434,T
2023-04-04T14:04:22Z,usnnjdm9,serial-reaction-time,1,P,5,1,70,4321,0,2,302.5,342,H
2023-04-04T14:04:22Z,usnnjdm9,serial-reaction-time,1,R,5,1,71,4321,0,1,383.30000000074506,421,L
2023-04-04T14:04:23Z,usnnjdm9,serial-reaction-time,1,P,5,1,72,4321,0,1,307.80000000074506,211,H
2023-04-04T14:04:23Z,usnnjdm9,serial-reaction-time,1,R,5,1,73,4321,0,2,474.19999999925494,112,L
2023-04-04T14:04:24Z,usnnjdm9,serial-reaction-time,1,P,5,1,74,4321,0,4,357.4000000022352,124,H
2023-04-04T14:04:24Z,usnnjdm9,serial-reaction-time,1,R,5,1,75,4321,0,1,328.19999999925494,241,H
2023-04-04T14:04:25Z,usnnjdm9,serial-reaction-time,1,P,5,1,76,4321,0,3,377.70000000298023,413,H
2023-04-04T14:04:25Z,usnnjdm9,serial-reaction-time,1,R,5,1,77,4321,0,3,334.6000000014901,133,L
2023-04-04T14:04:26Z,usnnjdm9,serial-reaction-time,1,P,5,1,78,4321,0,2,346.5999999977648,332,H
2023-04-04T14:04:26Z,usnnjdm9,serial-reaction-time,1,R,5,1,79,4321,0,2,334.9000000022352,322,H
2023-04-04T14:04:27Z,usnnjdm9,serial-reaction-time,1,P,5,1,80,4321,0,1,268.80000000074506,221,H
2023-04-04T14:04:32Z,usnnjdm9,html-keyboard-response,NA,NA,NA,NA,NA,NA,NA,NA,NA,NA,NA
2023-04-04T14:04:35Z,usnnjdm9,html-keyboard-response,NA,NA,NA,NA,NA,NA,NA,NA,NA,NA,NA
2023-04-04T14:04:36Z,usnnjdm9,fullscreen,NA,NA,NA,NA,NA,NA,NA,NA,NA,NA,NA
2023-04-04T14:46:11Z,9eprutwa,fullscreen,NA,NA,NA,NA,NA,NA,NA,NA,NA,NA,NA
2023-04-04T14:46:14Z,9eprutwa,html-keyboard-response,NA,NA,NA,NA,NA,NA,NA,NA,NA,NA,NA
2023-04-04T14:46:16Z,9eprutwa,serial-reaction-time,1,R,1,1,1,2413,0,1,342.9000000022352,1,X
2023-04-04T14:46:16Z,9eprutwa,serial-reaction-time,1,P,1,1,2,2413,0,2,405.3999999985099,12,X
2023-04-04T14:46:17Z,9eprutwa,serial-reaction-time,1,R,1,1,3,2413,0,1,329.69999999925494,121,T
2023-04-04T14:46:17Z,9eprutwa,serial-reaction-time,1,P,1,1,4,2413,0,4,384.4000000022352,214,H
2023-04-04T14:46:18Z,9eprutwa,serial-reaction-time,1,R,1,1,5,2413,0,2,331.70000000298023,142,L
2023-04-04T14:46:18Z,9eprutwa,serial-reaction-time,1,P,1,1,6,2413,0,1,320.19999999925494,421,H
2023-04-04T14:46:19Z,9eprutwa,serial-reaction-time,1,R,1,1,7,2413,0,2,340.9000000022352,212,T
2023-04-04T14:46:19Z,9eprutwa,serial-reaction-time,1,P,1,1,8,2413,0,3,315.8999999985099,123,H
2023-04-04T14:46:19Z,9eprutwa,serial-reaction-time,1,R,1,1,9,2413,0,4,307.69999999925494,234,H
2023-04-04T14:46:20Z,9eprutwa,serial-reaction-time,1,P,1,1,10,2413,0,2,365.70000000298023,342,H
2023-04-04T14:46:20Z,9eprutwa,serial-reaction-time,1,R,1,1,11,2413,0,2,332.30000000074506,422,L
2023-04-04T14:46:21Z,9eprutwa,serial-reaction-time,1,P,1,1,12,2413,0,4,306.80000000074506,224,H
2023-04-04T14:46:21Z,9eprutwa,serial-reaction-time,1,R,1,1,13,2413,0,3,282,243,L
2023-04-04T14:46:22Z,9eprutwa,serial-reaction-time,1,P,1,1,14,2413,0,1,317.30000000074506,431,H
2023-04-04T14:46:22Z,9eprutwa,serial-reaction-time,1,R,1,1,15,2413,0,4,339.30000000074506,314,L
2023-04-04T14:46:23Z,9eprutwa,serial-reaction-time,1,P,1,1,16,2413,0,3,317.5,143,H
2023-04-04T14:46:23Z,9eprutwa,serial-reaction-time,NA,R,1,1,17,2413,0,1,371.30000000074506,431,H
2023-04-04T14:46:23Z,9eprutwa,serial-reaction-time,1,R,1,0,17,2413,0,1,409.1000000014901,431,H
2023-04-04T14:46:24Z,9eprutwa,serial-reaction-time,1,P,1,1,18,2413,0,2,383.5,312,H
2023-04-04T14:46:24Z,9eprutwa,serial-reaction-time,1,R,1,1,19,2413,0,1,351.8999999985099,121,T
2023-04-04T14:46:25Z,9eprutwa,serial-reaction-time,1,P,1,1,20,2413,0,4,327,214,H
2023-04-04T14:46:25Z,9eprutwa,serial-reaction-time,1,R,1,1,21,2413,0,1,385.30000000074506,141,T
2023-04-04T14:46:26Z,9eprutwa,serial-reaction-time,1,P,1,1,22,2413,0,1,282.8999999985099,411,H
2023-04-04T14:46:26Z,9eprutwa,serial-reaction-time,NA,R,1,1,23,2413,0,4,316.80000000074506,114,L
2023-04-04T14:46:26Z,9eprutwa,serial-reaction-time,1,R,1,0,23,2413,0,4,664.3999999985099,114,L
2023-04-04T14:46:27Z,9eprutwa,serial-reaction-time,1,P,1,1,24,2413,0,3,350.5,143,H
2023-04-04T14:46:27Z,9eprutwa,serial-reaction-time,1,R,1,1,25,2413,0,3,298.8999999985099,433,L
2023-04-04T14:46:28Z,9eprutwa,serial-reaction-time,1,P,1,1,26,2413,0,2,368.19999999925494,332,H
2023-04-04T14:46:28Z,9eprutwa,serial-reaction-time,1,R,1,1,27,2413,0,2,295.69999999925494,322,H
2023-04-04T14:46:29Z,9eprutwa,serial-reaction-time,1,P,1,1,28,2413,0,4,308.80000000074506,224,H
2023-04-04T14:46:29Z,9eprutwa,serial-reaction-time,1,R,1,1,29,2413,0,1,439.5999999977648,241,L
2023-04-04T14:46:30Z,9eprutwa,serial-reaction-time,1,P,1,1,30,2413,0,1,307.5,411,H
2023-04-04T14:46:30Z,9eprutwa,serial-reaction-time,1,R,1,1,31,2413,0,3,316.3999999985099,113,H
2023-04-04T14:46:31Z,9eprutwa,serial-reaction-time,1,P,1,1,32,2413,0,3,288.80000000074506,133,H
2023-04-04T14:46:31Z,9eprutwa,serial-reaction-time,1,R,1,1,33,2413,0,2,369.5999999977648,332,H
2023-04-04T14:46:32Z,9eprutwa,serial-reaction-time,1,P,1,1,34,2413,0,2,305.1000000014901,322,H
2023-04-04T14:46:32Z,9eprutwa,serial-reaction-time,1,R,1,1,35,2413,0,4,314.79999999701977,224,H
2023-04-04T14:46:32Z,9eprutwa,serial-reaction-time,1,P,1,1,36,2413,0,4,275.70000000298023,244,H
2023-04-04T14:46:33Z,9eprutwa,serial-reaction-time,1,R,1,1,37,2413,0,3,342.3999999985099,443,L
2023-04-04T14:46:33Z,9eprutwa,serial-reaction-time,1,P,1,1,38,2413,0,1,323.1000000014901,431,H
2023-04-04T14:46:34Z,9eprutwa,serial-reaction-time,1,R,1,1,39,2413,0,1,323,311,L
2023-04-04T14:46:34Z,9eprutwa,serial-reaction-time,1,P,1,1,40,2413,0,3,309.5999999977648,113,H
2023-04-04T14:46:35Z,9eprutwa,serial-reaction-time,1,R,1,1,41,2413,0,2,387.1000000014901,132,L
2023-04-04T14:46:35Z,9eprutwa,serial-reaction-time,1,P,1,1,42,2413,0,2,334.29999999701977,322,H
2023-04-04T14:46:36Z,9eprutwa,serial-reaction-time,1,R,1,1,43,2413,0,3,370.19999999925494,223,L
2023-04-04T14:46:36Z,9eprutwa,serial-reaction-time,1,P,1,1,44,2413,0,4,304.8999999985099,234,H
2023-04-04T14:46:37Z,9eprutwa,serial-reaction-time,NA,R,1,1,45,2413,0,1,377.80000000074506,341,L
2023-04-04T14:46:37Z,9eprutwa,serial-reaction-time,1,R,1,0,45,2413,0,1,419.5,341,L
2023-04-04T14:46:37Z,9eprutwa,serial-reaction-time,1,P,1,1,46,2413,0,1,283.70000000298023,411,H
2023-04-04T14:46:38Z,9eprutwa,serial-reaction-time,1,R,1,1,47,2413,0,4,364.30000000074506,114,L
2023-04-04T14:46:38Z,9eprutwa,serial-reaction-time,1,P,1,1,48,2413,0,3,323.80000000074506,143,H
2023-04-04T14:46:39Z,9eprutwa,serial-reaction-time,1,R,1,1,49,2413,0,3,245.19999999925497,433,L
2023-04-04T14:46:39Z,9eprutwa,serial-reaction-time,1,P,1,1,50,2413,0,2,371.5,332,H
2023-04-04T14:46:40Z,9eprutwa,serial-reaction-time,1,R,1,1,51,2413,0,1,320.80000000074506,321,L
2023-04-04T14:46:40Z,9eprutwa,serial-reaction-time,1,P,1,1,52,2413,0,4,404.5,214,H
2023-04-04T14:46:41Z,9eprutwa,serial-reaction-time,1,R,1,1,53,2413,0,3,307.3999999985099,143,H
2023-04-04T14:46:41Z,9eprutwa,serial-reaction-time,1,P,1,1,54,2413,0,1,340.8999999985099,431,H
2023-04-04T14:46:41Z,9eprutwa,serial-reaction-time,1,R,1,1,55,2413,0,1,313.20000000298023,311,L
2023-04-04T14:46:42Z,9eprutwa,serial-reaction-time,1,P,1,1,56,2413,0,3,336,113,H
2023-04-04T14:46:42Z,9eprutwa,serial-reaction-time,1,R,1,1,57,2413,0,2,416.3999999985099,132,L
2023-04-04T14:46:43Z,9eprutwa,serial-reaction-time,1,P,1,1,58,2413,0,2,295.30000000074506,322,H
2023-04-04T14:46:43Z,9eprutwa,serial-reaction-time,1,R,1,1,59,2413,0,3,375.5,223,L
2023-04-04T14:46:44Z,9eprutwa,serial-reaction-time,1,P,1,1,60,2413,0,4,313.6000000014901,234,H
2023-04-04T14:46:44Z,9eprutwa,serial-reaction-time,1,R,1,1,61,2413,0,3,323.8999999985099,343,T
2023-04-04T14:46:45Z,9eprutwa,serial-reaction-time,1,P,1,1,62,2413,0,1,414.5,431,H
2023-04-04T14:46:45Z,9eprutwa,serial-reaction-time,1,R,1,1,63,2413,0,1,281,311,L
2023-04-04T14:46:46Z,9eprutwa,serial-reaction-time,1,P,1,1,64,2413,0,3,317.1000000014901,113,H
2023-04-04T14:46:46Z,9eprutwa,serial-reaction-time,1,R,1,1,65,2413,0,4,315.19999999925494,134,L
2023-04-04T14:46:47Z,9eprutwa,serial-reaction-time,1,P,1,1,66,2413,0,2,362.5,342,H
2023-04-04T14:46:47Z,9eprutwa,serial-reaction-time,1,R,1,1,67,2413,0,2,263,422,L
2023-04-04T14:46:48Z,9eprutwa,serial-reaction-time,NA,P,1,1,68,2413,0,4,341.8999999985099,224,H
2023-04-04T14:46:48Z,9eprutwa,serial-reaction-time,1,P,1,0,68,2413,0,4,462.19999999925494,224,H
2023-04-04T14:46:48Z,9eprutwa,serial-reaction-time,NA,R,1,1,69,2413,0,3,326.4000000022352,243,L
2023-04-04T14:46:48Z,9eprutwa,serial-reaction-time,1,R,1,0,69,2413,0,3,432.20000000298023,243,L
2023-04-04T14:46:49Z,9eprutwa,serial-reaction-time,1,P,1,1,70,2413,0,1,387.8999999985099,431,H
2023-04-04T14:46:49Z,9eprutwa,serial-reaction-time,1,R,1,1,71,2413,0,3,354,313,T
2023-04-04T14:46:50Z,9eprutwa,serial-reaction-time,1,P,1,1,72,2413,0,3,232.10000000149012,133,H
2023-04-04T14:46:50Z,9eprutwa,serial-reaction-time,1,R,1,1,73,2413,0,3,316.80000000074506,333,R
2023-04-04T14:46:51Z,9eprutwa,serial-reaction-time,1,P,1,1,74,2413,0,2,360.30000000074506,332,H
2023-04-04T14:46:51Z,9eprutwa,serial-reaction-time,1,R,1,1,75,2413,0,3,360.1000000014901,323,T
2023-04-04T14:46:52Z,9eprutwa,serial-reaction-time,1,P,1,1,76,2413,0,4,289.8999999985099,234,H
2023-04-04T14:46:52Z,9eprutwa,serial-reaction-time,1,R,1,1,77,2413,0,2,313,342,H
2023-04-04T14:46:53Z,9eprutwa,serial-reaction-time,1,P,1,1,78,2413,0,1,387.5,421,H
2023-04-04T14:46:53Z,9eprutwa,serial-reaction-time,1,R,1,1,79,2413,0,3,326,213,L
2023-04-04T14:46:53Z,9eprutwa,serial-reaction-time,1,P,1,1,80,2413,0,3,314.5,133,H
2023-04-04T14:46:58Z,9eprutwa,html-keyboard-response,NA,NA,NA,NA,NA,NA,NA,NA,NA,NA,NA
2023-04-04T14:47:03Z,9eprutwa,html-keyboard-response,NA,NA,NA,NA,NA,NA,NA,NA,NA,NA,NA
2023-04-04T14:47:04Z,9eprutwa,serial-reaction-time,1,R,2,1,1,2413,0,1,339.80000000074506,1,X
2023-04-04T14:47:05Z,9eprutwa,serial-reaction-time,1,P,2,1,2,2413,0,2,405.70000000298023,12,X
2023-04-04T14:47:05Z,9eprutwa,serial-reaction-time,1,R,2,1,3,2413,0,4,317.70000000298023,124,L
2023-04-04T14:47:06Z,9eprutwa,serial-reaction-time,1,P,2,1,4,2413,0,4,280,244,H
2023-04-04T14:47:06Z,9eprutwa,serial-reaction-time,1,R,2,1,5,2413,0,2,377.19999999925494,442,L
2023-04-04T14:47:07Z,9eprutwa,serial-reaction-time,NA,P,2,1,6,2413,0,1,264.1000000014901,421,H
2023-04-04T14:47:07Z,9eprutwa,serial-reaction-time,1,P,2,0,6,2413,0,1,510.20000000298023,421,H
2023-04-04T14:47:07Z,9eprutwa,serial-reaction-time,1,R,2,1,7,2413,0,3,343.70000000298023,213,L
2023-04-04T14:47:08Z,9eprutwa,serial-reaction-time,1,P,2,1,8,2413,0,3,315.80000000074506,133,H
2023-04-04T14:47:08Z,9eprutwa,serial-reaction-time,NA,R,2,1,9,2413,0,2,372.69999999925494,332,H
2023-04-04T14:47:08Z,9eprutwa,serial-reaction-time,1,R,2,0,9,2413,0,2,408.80000000074506,332,H
2023-04-04T14:47:09Z,9eprutwa,serial-reaction-time,1,P,2,1,10,2413,0,2,315.3999999985099,322,H
2023-04-04T14:47:09Z,9eprutwa,serial-reaction-time,1,R,2,1,11,2413,0,3,352.6000000014901,223,L
2023-04-04T14:47:10Z,9eprutwa,serial-reaction-time,1,P,2,1,12,2413,0,4,390,234,H
2023-04-04T14:47:10Z,9eprutwa,serial-reaction-time,1,R,2,1,13,2413,0,1,360.69999999925494,341,L
2023-04-04T14:47:11Z,9eprutwa,serial-reaction-time,1,P,2,1,14,2413,0,1,296.1000000014901,411,H
2023-04-04T14:47:11Z,9eprutwa,serial-reaction-time,1,R,2,1,15,2413,0,2,390.6000000014901,112,L
2023-04-04T14:47:12Z,9eprutwa,serial-reaction-time,1,P,2,1,16,2413,0,3,365.5,123,H
2023-04-04T14:47:12Z,9eprutwa,serial-reaction-time,NA,R,2,1,17,2413,0,2,344,232,T
2023-04-04T14:47:13Z,9eprutwa,serial-reaction-time,1,R,2,0,17,2413,0,2,674.1000000014901,232,T
2023-04-04T14:47:13Z,9eprutwa,serial-reaction-time,1,P,2,1,18,2413,0,2,301.8999999985099,322,H
2023-04-04T14:47:13Z,9eprutwa,serial-reaction-time,1,R,2,1,19,2413,0,4,297,224,H
2023-04-04T14:47:14Z,9eprutwa,serial-reaction-time,1,P,2,1,20,2413,0,4,262.30000000074506,244,H
2023-04-04T14:47:14Z,9eprutwa,serial-reaction-time,1,R,2,1,21,2413,0,4,324.9000000022352,444,R
2023-04-04T14:47:15Z,9eprutwa,serial-reaction-time,1,P,2,1,22,2413,0,1,345.9000000022352,441,H
2023-04-04T14:47:15Z,9eprutwa,serial-reaction-time,1,R,2,1,23,2413,0,1,259.3999999985099,411,H
2023-04-04T14:47:16Z,9eprutwa,serial-reaction-time,1,P,2,1,24,2413,0,3,323,113,H
2023-04-04T14:47:16Z,9eprutwa,serial-reaction-time,1,R,2,1,25,2413,0,2,333.80000000074506,132,L
2023-04-04T14:47:17Z,9eprutwa,serial-reaction-time,1,P,2,1,26,2413,0,2,304.3999999985099,322,H
2023-04-04T14:47:17Z,9eprutwa,serial-reaction-time,1,R,2,1,27,2413,0,4,335.9000000022352,224,H
2023-04-04T14:47:17Z,9eprutwa,serial-reaction-time,1,P,2,1,28,2413,0,4,254.20000000298023,244,H
2023-04-04T14:47:18Z,9eprutwa,serial-reaction-time,1,R,2,1,29,2413,0,1,343.19999999925494,441,H
2023-04-04T14:47:18Z,9eprutwa,serial-reaction-time,1,P,2,1,30,2413,0,1,309.70000000298023,411,H
2023-04-04T14:47:19Z,9eprutwa,serial-reaction-time,1,R,2,1,31,2413,0,1,299,111,R
2023-04-04T14:47:19Z,9eprutwa,serial-reaction-time,1,P,2,1,32,2413,0,3,320.30000000074506,113,H
2023-04-04T14:47:20Z,9eprutwa,serial-reaction-time,1,R,2,1,33,2413,0,4,342.8999999985099,134,L
2023-04-04T14:47:20Z,9eprutwa,serial-reaction-time,1,P,2,1,34,2413,0,2,321.80000000074506,342,H
2023-04-04T14:47:21Z,9eprutwa,serial-reaction-time,1,R,2,1,35,2413,0,4,381.69999999925494,424,T
2023-04-04T14:47:21Z,9eprutwa,serial-reaction-time,NA,P,2,1,36,2413,0,4,345.8999999985099,244,H
2023-04-04T14:47:22Z,9eprutwa,serial-reaction-time,1,P,2,0,36,2413,0,4,665.8999999985099,244,H
2023-04-04T14:47:22Z,9eprutwa,serial-reaction-time,1,R,2,1,37,2413,0,3,403.5999999977648,443,L
2023-04-04T14:47:23Z,9eprutwa,serial-reaction-time,1,P,2,1,38,2413,0,1,327.69999999925494,431,H
2023-04-04T14:47:23Z,9eprutwa,serial-reaction-time,1,R,2,1,39,2413,0,1,268.5,311,L
2023-04-04T14:47:23Z,9eprutwa,serial-reaction-time,1,P,2,1,40,2413,0,3,379.1000000014901,113,H
2023-04-04T14:47:24Z,9eprutwa,serial-reaction-time,1,R,2,1,41,2413,0,1,354.19999999925494,131,T
2023-04-04T14:47:24Z,9eprutwa,serial-reaction-time,1,P,2,1,42,2413,0,2,387.6000000014901,312,H
2023-04-04T14:47:25Z,9eprutwa,serial-reaction-time,1,R,2,1,43,2413,0,1,378.4000000022352,121,T
2023-04-04T14:47:25Z,9eprutwa,serial-reaction-time,1,P,2,1,44,2413,0,4,309.20000000298023,214,H
2023-04-04T14:47:26Z,9eprutwa,serial-reaction-time,1,R,2,1,45,2413,0,4,343.1000000014901,144,L
2023-04-04T14:47:26Z,9eprutwa,serial-reaction-time,1,P,2,1,46,2413,0,1,341,441,H
2023-04-04T14:47:27Z,9eprutwa,serial-reaction-time,1,R,2,1,47,2413,0,1,244,411,H
2023-04-04T14:47:27Z,9eprutwa,serial-reaction-time,1,P,2,1,48,2413,0,3,305,113,H
2023-04-04T14:47:28Z,9eprutwa,serial-reaction-time,1,R,2,1,49,2413,0,2,317.80000000074506,132,L
2023-04-04T14:47:28Z,9eprutwa,serial-reaction-time,1,P,2,1,50,2413,0,2,296.79999999701977,322,H
2023-04-04T14:47:29Z,9eprutwa,serial-reaction-time,1,R,2,1,51,2413,0,4,302.20000000298023,224,H
2023-04-04T14:47:29Z,9eprutwa,serial-reaction-time,1,P,2,1,52,2413,0,4,284.9000000022352,244,H
2023-04-04T14:47:29Z,9eprutwa,serial-reaction-time,NA,R,2,1,53,2413,0,2,317.5,442,L
2023-04-04T14:47:30Z,9eprutwa,serial-reaction-time,1,R,2,0,53,2413,0,2,415.8999999985099,442,L
2023-04-04T14:47:30Z,9eprutwa,serial-reaction-time,1,P,2,1,54,2413,0,1,339.9000000022352,421,H
2023-04-04T14:47:31Z,9eprutwa,serial-reaction-time,1,R,2,1,55,2413,0,4,390.9000000022352,214,H
2023-04-04T14:47:31Z,9eprutwa,serial-reaction-time,1,P,2,1,56,2413,0,3,328.8999999985099,143,H
2023-04-04T14:47:31Z,9eprutwa,serial-reaction-time,1,R,2,1,57,2413,0,1,296.1000000014901,431,H
2023-04-04T14:47:32Z,9eprutwa,serial-reaction-time,NA,P,2,1,58,2413,0,2,368.30000000074506,312,H
2023-04-04T14:47:32Z,9eprutwa,serial-reaction-time,1,P,2,0,58,2413,0,2,728.0000000037253,312,H
2023-04-04T14:47:33Z,9eprutwa,serial-reaction-time,1,R,2,1,59,2413,0,4,369.80000000074506,124,L
2023-04-04T14:47:33Z,9eprutwa,serial-reaction-time,1,P,2,1,60,2413,0,4,335,244,H
2023-04-04T14:47:34Z,9eprutwa,serial-reaction-time,1,R,2,1,61,2413,0,3,404.6000000014901,443,L
2023-04-04T14:47:34Z,9eprutwa,serial-reaction-time,1,P,2,1,62,2413,0,1,332.9000000022352,431,H
2023-04-04T14:47:35Z,9eprutwa,serial-reaction-time,1,R,2,1,63,2413,0,4,335.19999999925494,314,L
2023-04-04T14:47:35Z,9eprutwa,serial-reaction-time,1,P,2,1,64,2413,0,3,407.80000000074506,143,H
2023-04-04T14:47:36Z,9eprutwa,serial-reaction-time,1,R,2,1,65,2413,0,2,356,432,L
2023-04-04T14:47:36Z,9eprutwa,serial-reaction-time,1,P,2,1,66,2413,0,2,308.20000000298023,322,H
2023-04-04T14:47:37Z,9eprutwa,serial-reaction-time,1,R,2,1,67,2413,0,1,293.20000000298023,221,L
2023-04-04T14:47:37Z,9eprutwa,serial-reaction-time,1,P,2,1,68,2413,0,4,337.30000000074506,214,H
2023-04-04T14:47:38Z,9eprutwa,serial-reaction-time,1,R,2,1,69,2413,0,3,344.80000000074506,143,H
2023-04-04T14:47:38Z,9eprutwa,serial-reaction-time,NA,P,2,1,70,2413,0,1,276.3999999985099,431,H
2023-04-04T14:47:38Z,9eprutwa,serial-reaction-time,1,P,2,0,70,2413,0,1,516.3999999985099,431,H
2023-04-04T14:47:39Z,9eprutwa,serial-reaction-time,1,R,2,1,71,2413,0,2,438.5999999977648,312,H
2023-04-04T14:47:39Z,9eprutwa,serial-reaction-time,NA,P,2,1,72,2413,0,3,356.4000000022352,123,H
2023-04-04T14:47:40Z,9eprutwa,serial-reaction-time,1,P,2,0,72,2413,0,3,478.9000000022352,123,H
2023-04-04T14:47:40Z,9eprutwa,serial-reaction-time,NA,R,2,1,73,2413,0,4,73.20000000298023,234,H
2023-04-04T14:47:40Z,9eprutwa,serial-reaction-time,1,R,2,0,73,2413,0,4,389.20000000298023,234,H
2023-04-04T14:47:41Z,9eprutwa,serial-reaction-time,1,P,2,1,74,2413,0,2,369.9000000022352,342,H
2023-04-04T14:47:41Z,9eprutwa,serial-reaction-time,NA,R,2,1,75,2413,0,3,385.8999999985099,423,L
2023-04-04T14:47:41Z,9eprutwa,serial-reaction-time,1,R,2,0,75,2413,0,3,603,423,L
2023-04-04T14:47:42Z,9eprutwa,serial-reaction-time,1,P,2,1,76,2413,0,4,382.8999999985099,234,H
2023-04-04T14:47:42Z,9eprutwa,serial-reaction-time,1,R,2,1,77,2413,0,2,375.8999999985099,342,H
2023-04-04T14:47:43Z,9eprutwa,serial-reaction-time,1,P,2,1,78,2413,0,1,315.0999999977648,421,H
2023-04-04T14:47:43Z,9eprutwa,serial-reaction-time,1,R,2,1,79,2413,0,1,317.5,211,L
2023-04-04T14:47:44Z,9eprutwa,serial-reaction-time,1,P,2,1,80,2413,0,3,312.5,113,H
2023-04-04T14:47:49Z,9eprutwa,html-keyboard-response,NA,NA,NA,NA,NA,NA,NA,NA,NA,NA,NA
2023-04-04T14:47:49Z,9eprutwa,html-keyboard-response,NA,NA,NA,NA,NA,NA,NA,NA,NA,NA,NA
2023-04-04T14:47:50Z,9eprutwa,serial-reaction-time,1,R,3,1,1,2413,0,2,379.3999999985099,2,X
2023-04-04T14:47:51Z,9eprutwa,serial-reaction-time,1,P,3,1,2,2413,0,2,275.30000000074506,22,X
2023-04-04T14:47:51Z,9eprutwa,serial-reaction-time,1,R,3,1,3,2413,0,2,289.70000000298023,222,R
2023-04-04T14:47:51Z,9eprutwa,serial-reaction-time,1,P,3,1,4,2413,0,4,350.19999999925494,224,H
2023-04-04T14:47:52Z,9eprutwa,serial-reaction-time,1,R,3,1,5,2413,0,2,400.4000000022352,242,T
2023-04-04T14:47:53Z,9eprutwa,serial-reaction-time,1,P,3,1,6,2413,0,1,371.3999999985099,421,H
2023-04-04T14:47:53Z,9eprutwa,serial-reaction-time,1,R,3,1,7,2413,0,4,379.5,214,H
2023-04-04T14:47:54Z,9eprutwa,serial-reaction-time,1,P,3,1,8,2413,0,3,311.80000000074506,143,H
2023-04-04T14:47:54Z,9eprutwa,serial-reaction-time,NA,R,3,1,9,2413,0,1,356.6000000014901,431,H
2023-04-04T14:47:54Z,9eprutwa,serial-reaction-time,1,R,3,0,9,2413,0,1,420.6000000014901,431,H
2023-04-04T14:47:55Z,9eprutwa,serial-reaction-time,NA,P,3,1,10,2413,0,2,296.5,312,H
2023-04-04T14:47:55Z,9eprutwa,serial-reaction-time,1,P,3,0,10,2413,0,2,429.80000000074506,312,H
2023-04-04T14:47:55Z,9eprutwa,serial-reaction-time,1,R,3,1,11,2413,0,1,385.8999999985099,121,T
2023-04-04T14:47:56Z,9eprutwa,serial-reaction-time,NA,P,3,1,12,2413,0,4,339.3999999985099,214,H
2023-04-04T14:47:56Z,9eprutwa,serial-reaction-time,1,P,3,0,12,2413,0,4,390.69999999925494,214,H
2023-04-04T14:47:56Z,9eprutwa,serial-reaction-time,1,R,3,1,13,2413,0,3,391.20000000298023,143,H
2023-04-04T14:47:57Z,9eprutwa,serial-reaction-time,NA,P,3,1,14,2413,0,1,280.5999999977648,431,H
2023-04-04T14:47:57Z,9eprutwa,serial-reaction-time,1,P,3,0,14,2413,0,1,358.5999999977648,431,H
2023-04-04T14:47:57Z,9eprutwa,serial-reaction-time,1,R,3,1,15,2413,0,1,313,311,L
2023-04-04T14:47:58Z,9eprutwa,serial-reaction-time,1,P,3,1,16,2413,0,3,290.1000000014901,113,H
2023-04-04T14:47:58Z,9eprutwa,serial-reaction-time,1,R,3,1,17,2413,0,3,306.80000000074506,133,H
2023-04-04T14:47:59Z,9eprutwa,serial-reaction-time,1,P,3,1,18,2413,0,2,323.5,332,H
2023-04-04T14:47:59Z,9eprutwa,serial-reaction-time,1,R,3,1,19,2413,0,4,348.8999999985099,324,L
2023-04-04T14:47:59Z,9eprutwa,serial-reaction-time,1,P,3,1,20,2413,0,4,342.69999999925494,244,H
2023-04-04T14:48:00Z,9eprutwa,serial-reaction-time,1,R,3,1,21,2413,0,3,336,443,L
2023-04-04T14:48:00Z,9eprutwa,serial-reaction-time,1,P,3,1,22,2413,0,1,295,431,H
2023-04-04T14:48:01Z,9eprutwa,serial-reaction-time,NA,R,3,1,23,2413,0,2,247.89999999850988,312,H
2023-04-04T14:48:01Z,9eprutwa,serial-reaction-time,1,R,3,0,23,2413,0,2,552.3000000007451,312,H
2023-04-04T14:48:02Z,9eprutwa,serial-reaction-time,1,P,3,1,24,2413,0,3,321.4000000022352,123,H
2023-04-04T14:48:02Z,9eprutwa,serial-reaction-time,1,R,3,1,25,2413,0,1,348.5,231,L
2023-04-04T14:48:03Z,9eprutwa,serial-reaction-time,NA,P,3,1,26,2413,0,2,419.4000000022352,312,H
2023-04-04T14:48:03Z,9eprutwa,serial-reaction-time,1,P,3,0,26,2413,0,2,521,312,H
2023-04-04T14:48:03Z,9eprutwa,serial-reaction-time,1,R,3,1,27,2413,0,4,340.5,124,L
2023-04-04T14:48:04Z,9eprutwa,serial-reaction-time,1,P,3,1,28,2413,0,4,314.8999999985099,244,H
2023-04-04T14:48:04Z,9eprutwa,serial-reaction-time,1,R,3,1,29,2413,0,4,327.80000000074506,444,R
2023-04-04T14:48:05Z,9eprutwa,serial-reaction-time,1,P,3,1,30,2413,0,1,396.80000000074506,441,H
2023-04-04T14:48:05Z,9eprutwa,serial-reaction-time,NA,R,3,1,31,2413,0,4,343.1000000014901,414,T
2023-04-04T14:48:05Z,9eprutwa,serial-reaction-time,1,R,3,0,31,2413,0,4,403,414,T
2023-04-04T14:48:06Z,9eprutwa,serial-reaction-time,1,P,3,1,32,2413,0,3,395.5,143,H
2023-04-04T14:48:06Z,9eprutwa,serial-reaction-time,1,R,3,1,33,2413,0,1,341.69999999925494,431,H
2023-04-04T14:48:07Z,9eprutwa,serial-reaction-time,1,P,3,1,34,2413,0,2,389.4000000022352,312,H
2023-04-04T14:48:07Z,9eprutwa,serial-reaction-time,1,R,3,1,35,2413,0,2,319.1000000014901,122,L
2023-04-04T14:48:08Z,9eprutwa,serial-reaction-time,1,P,3,1,36,2413,0,4,301.4000000022352,224,H
2023-04-04T14:48:08Z,9eprutwa,serial-reaction-time,1,R,3,1,37,2413,0,2,326,242,T
2023-04-04T14:48:09Z,9eprutwa,serial-reaction-time,1,P,3,1,38,2413,0,1,369.80000000074506,421,H
2023-04-04T14:48:09Z,9eprutwa,serial-reaction-time,1,R,3,1,39,2413,0,1,273.0999999977648,211,L
2023-04-04T14:48:09Z,9eprutwa,serial-reaction-time,1,P,3,1,40,2413,0,3,348.4000000022352,113,H
2023-04-04T14:48:10Z,9eprutwa,serial-reaction-time,1,R,3,1,41,2413,0,1,341.19999999925494,131,T
2023-04-04T14:48:10Z,9eprutwa,serial-reaction-time,1,P,3,1,42,2413,0,2,417.8999999985099,312,H
2023-04-04T14:48:11Z,9eprutwa,serial-reaction-time,1,R,3,1,43,2413,0,1,344,121,T
2023-04-04T14:48:11Z,9eprutwa,serial-reaction-time,1,P,3,1,44,2413,0,4,384.69999999925494,214,H
2023-04-04T14:48:12Z,9eprutwa,serial-reaction-time,1,R,3,1,45,2413,0,2,399.30000000074506,142,L
2023-04-04T14:48:12Z,9eprutwa,serial-reaction-time,1,P,3,1,46,2413,0,1,303.8999999985099,421,H
2023-04-04T14:48:13Z,9eprutwa,serial-reaction-time,1,R,3,1,47,2413,0,4,360.6000000014901,214,H
2023-04-04T14:48:14Z,9eprutwa,serial-reaction-time,1,P,3,1,48,2413,0,3,427.1000000014901,143,H
2023-04-04T14:48:14Z,9eprutwa,serial-reaction-time,1,R,3,1,49,2413,0,3,413.6000000014901,433,L
2023-04-04T14:48:15Z,9eprutwa,serial-reaction-time,1,P,3,1,50,2413,0,2,391.30000000074506,332,H
2023-04-04T14:48:15Z,9eprutwa,serial-reaction-time,1,R,3,1,51,2413,0,3,420.8999999985099,323,T
2023-04-04T14:48:16Z,9eprutwa,serial-reaction-time,1,P,3,1,52,2413,0,4,293.4000000022352,234,H
2023-04-04T14:48:16Z,9eprutwa,serial-reaction-time,1,R,3,1,53,2413,0,1,387.9000000022352,341,L
2023-04-04T14:48:17Z,9eprutwa,serial-reaction-time,1,P,3,1,54,2413,0,1,288.69999999925494,411,H
2023-04-04T14:48:17Z,9eprutwa,serial-reaction-time,1,R,3,1,55,2413,0,1,303.1000000014901,111,R
2023-04-04T14:48:17Z,9eprutwa,serial-reaction-time,1,P,3,1,56,2413,0,3,330.8999999985099,113,H
2023-04-04T14:48:18Z,9eprutwa,serial-reaction-time,1,R,3,1,57,2413,0,2,376.80000000074506,132,L
2023-04-04T14:48:18Z,9eprutwa,serial-reaction-time,1,P,3,1,58,2413,0,2,318.5,322,H
2023-04-04T14:48:19Z,9eprutwa,serial-reaction-time,1,R,3,1,59,2413,0,4,334.5999999977648,224,H
2023-04-04T14:48:19Z,9eprutwa,serial-reaction-time,1,P,3,1,60,2413,0,4,250.39999999850988,244,H
2023-04-04T14:48:20Z,9eprutwa,serial-reaction-time,1,R,3,1,61,2413,0,1,365.6000000014901,441,H
2023-04-04T14:48:20Z,9eprutwa,serial-reaction-time,1,P,3,1,62,2413,0,1,246.19999999925497,411,H
2023-04-04T14:48:21Z,9eprutwa,serial-reaction-time,1,R,3,1,63,2413,0,4,453.4000000022352,114,L
2023-04-04T14:48:21Z,9eprutwa,serial-reaction-time,1,P,3,1,64,2413,0,3,312,143,H
2023-04-04T14:48:22Z,9eprutwa,serial-reaction-time,1,R,3,1,65,2413,0,2,334.5,432,L
2023-04-04T14:48:22Z,9eprutwa,serial-reaction-time,1,P,3,1,66,2413,0,2,340.19999999925494,322,H
2023-04-04T14:48:23Z,9eprutwa,serial-reaction-time,1,R,3,1,67,2413,0,1,317.80000000074506,221,L
2023-04-04T14:48:23Z,9eprutwa,serial-reaction-time,1,P,3,1,68,2413,0,4,348.0999999977648,214,H
2023-04-04T14:48:24Z,9eprutwa,serial-reaction-time,1,R,3,1,69,2413,0,3,323.70000000298023,143,H
2023-04-04T14:48:24Z,9eprutwa,serial-reaction-time,NA,P,3,1,70,2413,0,1,382.5,431,H
2023-04-04T14:48:24Z,9eprutwa,serial-reaction-time,1,P,3,0,70,2413,0,1,421.3999999985099,431,H
2023-04-04T14:48:25Z,9eprutwa,serial-reaction-time,NA,R,3,1,71,2413,0,2,398.30000000074506,312,H
2023-04-04T14:48:25Z,9eprutwa,serial-reaction-time,1,R,3,0,71,2413,0,2,481.30000000074506,312,H
2023-04-04T14:48:25Z,9eprutwa,serial-reaction-time,1,P,3,1,72,2413,0,3,377.29999999701977,123,H
2023-04-04T14:48:26Z,9eprutwa,serial-reaction-time,1,R,3,1,73,2413,0,2,383.5,232,T
2023-04-04T14:48:26Z,9eprutwa,serial-reaction-time,1,P,3,1,74,2413,0,2,353.30000000074506,322,H
2023-04-04T14:48:27Z,9eprutwa,serial-reaction-time,1,R,3,1,75,2413,0,4,300.9000000022352,224,H
2023-04-04T14:48:27Z,9eprutwa,serial-reaction-time,1,P,3,1,76,2413,0,4,264.5,244,H
2023-04-04T14:48:28Z,9eprutwa,serial-reaction-time,1,R,3,1,77,2413,0,3,370.0999999977648,443,L
2023-04-04T14:48:28Z,9eprutwa,serial-reaction-time,1,P,3,1,78,2413,0,1,313.20000000298023,431,H
2023-04-04T14:48:29Z,9eprutwa,serial-reaction-time,1,R,3,1,79,2413,0,4,347.0999999977648,314,L
2023-04-04T14:48:29Z,9eprutwa,serial-reaction-time,1,P,3,1,80,2413,0,3,358.1000000014901,143,H
2023-04-04T14:48:34Z,9eprutwa,html-keyboard-response,NA,NA,NA,NA,NA,NA,NA,NA,NA,NA,NA
2023-04-04T14:48:36Z,9eprutwa,html-keyboard-response,NA,NA,NA,NA,NA,NA,NA,NA,NA,NA,NA
2023-04-04T14:48:38Z,9eprutwa,serial-reaction-time,1,R,4,1,1,2413,0,4,360.20000000298023,4,X
2023-04-04T14:48:38Z,9eprutwa,serial-reaction-time,NA,P,4,1,2,2413,0,2,473.8999999985099,42,X
2023-04-04T14:48:39Z,9eprutwa,serial-reaction-time,1,P,4,0,2,2413,0,2,579.1000000014901,42,X
2023-04-04T14:48:39Z,9eprutwa,serial-reaction-time,1,R,4,1,3,2413,0,2,331.19999999925494,422,L
2023-04-04T14:48:39Z,9eprutwa,serial-reaction-time,1,P,4,1,4,2413,0,4,316.6000000014901,224,H
2023-04-04T14:48:40Z,9eprutwa,serial-reaction-time,NA,R,4,1,5,2413,0,1,326.0999999977648,241,L
2023-04-04T14:48:40Z,9eprutwa,serial-reaction-time,1,R,4,0,5,2413,0,1,561.0999999977648,241,L
2023-04-04T14:48:41Z,9eprutwa,serial-reaction-time,1,P,4,1,6,2413,0,1,230.40000000223517,411,H
2023-04-04T14:48:41Z,9eprutwa,serial-reaction-time,1,R,4,1,7,2413,0,2,435.19999999925494,112,L
2023-04-04T14:48:42Z,9eprutwa,serial-reaction-time,NA,P,4,1,8,2413,0,3,368.19999999925494,123,H
2023-04-04T14:48:42Z,9eprutwa,serial-reaction-time,1,P,4,0,8,2413,0,3,418.69999999925494,123,H
2023-04-04T14:48:42Z,9eprutwa,serial-reaction-time,1,R,4,1,9,2413,0,4,276.30000000074506,234,H
2023-04-04T14:48:43Z,9eprutwa,serial-reaction-time,1,P,4,1,10,2413,0,2,362.30000000074506,342,H
2023-04-04T14:48:43Z,9eprutwa,serial-reaction-time,NA,R,4,1,11,2413,0,3,227.80000000074503,423,L
2023-04-04T14:48:43Z,9eprutwa,serial-reaction-time,1,R,4,0,11,2413,0,3,483.80000000074506,423,L
2023-04-04T14:48:44Z,9eprutwa,serial-reaction-time,1,P,4,1,12,2413,0,4,297.5,234,H
2023-04-04T14:48:44Z,9eprutwa,serial-reaction-time,1,R,4,1,13,2413,0,3,355.8999999985099,343,T
2023-04-04T14:48:45Z,9eprutwa,serial-reaction-time,1,P,4,1,14,2413,0,1,340.3999999985099,431,H
2023-04-04T14:48:45Z,9eprutwa,serial-reaction-time,1,R,4,1,15,2413,0,4,287.30000000074506,314,L
2023-04-04T14:48:45Z,9eprutwa,serial-reaction-time,1,P,4,1,16,2413,0,3,300.30000000074506,143,H
2023-04-04T14:48:46Z,9eprutwa,serial-reaction-time,1,R,4,1,17,2413,0,2,415.69999999925494,432,L
2023-04-04T14:48:46Z,9eprutwa,serial-reaction-time,1,P,4,1,18,2413,0,2,237.89999999850988,322,H
2023-04-04T14:48:47Z,9eprutwa,serial-reaction-time,1,R,4,1,19,2413,0,2,326.4000000022352,222,R
2023-04-04T14:48:47Z,9eprutwa,serial-reaction-time,1,P,4,1,20,2413,0,4,313.4000000022352,224,H
2023-04-04T14:48:48Z,9eprutwa,serial-reaction-time,1,R,4,1,21,2413,0,4,318.80000000074506,244,H
2023-04-04T14:48:48Z,9eprutwa,serial-reaction-time,1,P,4,1,22,2413,0,1,333.5999999977648,441,H
2023-04-04T14:48:49Z,9eprutwa,serial-reaction-time,NA,R,4,1,23,2413,0,2,192.29999999701977,412,L
2023-04-04T14:48:49Z,9eprutwa,serial-reaction-time,1,R,4,0,23,2413,0,2,554.0999999940395,412,L
2023-04-04T14:48:49Z,9eprutwa,serial-reaction-time,1,P,4,1,24,2413,0,3,301.6000000014901,123,H
2023-04-04T14:48:50Z,9eprutwa,serial-reaction-time,1,R,4,1,25,2413,0,2,364.5,232,T
2023-04-04T14:48:50Z,9eprutwa,serial-reaction-time,1,P,4,1,26,2413,0,2,329.5,322,H
2023-04-04T14:48:51Z,9eprutwa,serial-reaction-time,1,R,4,1,27,2413,0,2,297.4000000022352,222,R
2023-04-04T14:48:51Z,9eprutwa,serial-reaction-time,1,P,4,1,28,2413,0,4,312.5,224,H
2023-04-04T14:48:52Z,9eprutwa,serial-reaction-time,1,R,4,1,29,2413,0,3,355.80000000074506,243,L
2023-04-04T14:48:52Z,9eprutwa,serial-reaction-time,1,P,4,1,30,2413,0,1,362.80000000074506,431,H
2023-04-04T14:48:53Z,9eprutwa,serial-reaction-time,1,R,4,1,31,2413,0,1,201.5,311,L
2023-04-04T14:48:53Z,9eprutwa,serial-reaction-time,1,P,4,1,32,2413,0,3,312.70000000298023,113,H
2023-04-04T14:48:54Z,9eprutwa,serial-reaction-time,1,R,4,1,33,2413,0,2,364.80000000074506,132,L
2023-04-04T14:48:54Z,9eprutwa,serial-reaction-time,1,P,4,1,34,2413,0,2,299.8999999985099,322,H
2023-04-04T14:48:54Z,9eprutwa,serial-reaction-time,1,R,4,1,35,2413,0,4,367.19999999925494,224,H
2023-04-04T14:48:55Z,9eprutwa,serial-reaction-time,1,P,4,1,36,2413,0,4,261.8999999985099,244,H
2023-04-04T14:48:55Z,9eprutwa,serial-reaction-time,1,R,4,1,37,2413,0,4,328.80000000074506,444,R
2023-04-04T14:48:56Z,9eprutwa,serial-reaction-time,1,P,4,1,38,2413,0,1,322.9000000022352,441,H
2023-04-04T14:48:56Z,9eprutwa,serial-reaction-time,1,R,4,1,39,2413,0,1,381.1000000014901,411,H
2023-04-04T14:48:57Z,9eprutwa,serial-reaction-time,1,P,4,1,40,2413,0,3,314.9000000022352,113,H
2023-04-04T14:48:57Z,9eprutwa,serial-reaction-time,NA,R,4,1,41,2413,0,1,381.1000000014901,131,T
2023-04-04T14:48:57Z,9eprutwa,serial-reaction-time,1,R,4,0,41,2413,0,1,421.4000000022352,131,T
2023-04-04T14:48:58Z,9eprutwa,serial-reaction-time,1,P,4,1,42,2413,0,2,363.30000000074506,312,H
2023-04-04T14:48:58Z,9eprutwa,serial-reaction-time,1,R,4,1,43,2413,0,4,408.1000000014901,124,L
2023-04-04T14:48:59Z,9eprutwa,serial-reaction-time,1,P,4,1,44,2413,0,4,243.10000000149012,244,H
2023-04-04T14:48:59Z,9eprutwa,serial-reaction-time,1,R,4,1,45,2413,0,4,320,444,R
2023-04-04T14:49:00Z,9eprutwa,serial-reaction-time,NA,P,4,1,46,2413,0,1,210.5,441,H
2023-04-04T14:49:00Z,9eprutwa,serial-reaction-time,1,P,4,0,46,2413,0,1,466.9000000022352,441,H
2023-04-04T14:49:00Z,9eprutwa,serial-reaction-time,NA,R,4,1,47,2413,0,2,393,412,L
2023-04-04T14:49:01Z,9eprutwa,serial-reaction-time,1,R,4,0,47,2413,0,2,722.5999999977648,412,L
2023-04-04T14:49:01Z,9eprutwa,serial-reaction-time,1,P,4,1,48,2413,0,3,365.80000000074506,123,H
2023-04-04T14:49:02Z,9eprutwa,serial-reaction-time,1,R,4,1,49,2413,0,2,383.69999999925494,232,T
2023-04-04T14:49:02Z,9eprutwa,serial-reaction-time,1,P,4,1,50,2413,0,2,320.20000000298023,322,H
2023-04-04T14:49:03Z,9eprutwa,serial-reaction-time,1,R,4,1,51,2413,0,1,318.69999999925494,221,L
2023-04-04T14:49:03Z,9eprutwa,serial-reaction-time,1,P,4,1,52,2413,0,4,359,214,H
2023-04-04T14:49:04Z,9eprutwa,serial-reaction-time,1,R,4,1,53,2413,0,4,243.90000000223517,144,L
2023-04-04T14:49:04Z,9eprutwa,serial-reaction-time,1,P,4,1,54,2413,0,1,386.6000000014901,441,H
2023-04-04T14:49:04Z,9eprutwa,serial-reaction-time,NA,R,4,1,55,2413,0,2,234.69999999925497,412,L
2023-04-04T14:49:05Z,9eprutwa,serial-reaction-time,1,R,4,0,55,2413,0,2,500.5999999977648,412,L
2023-04-04T14:49:05Z,9eprutwa,serial-reaction-time,1,P,4,1,56,2413,0,3,343.20000000298023,123,H
2023-04-04T14:49:06Z,9eprutwa,serial-reaction-time,1,R,4,1,57,2413,0,4,378.1000000014901,234,H
2023-04-04T14:49:06Z,9eprutwa,serial-reaction-time,1,P,4,1,58,2413,0,2,346.20000000298023,342,H
2023-04-04T14:49:07Z,9eprutwa,serial-reaction-time,NA,R,4,1,59,2413,0,1,249.80000000074503,421,H
2023-04-04T14:49:07Z,9eprutwa,serial-reaction-time,1,R,4,0,59,2413,0,1,523.2000000029802,421,H
2023-04-04T14:49:07Z,9eprutwa,serial-reaction-time,1,P,4,1,60,2413,0,4,331,214,H
2023-04-04T14:49:08Z,9eprutwa,serial-reaction-time,1,R,4,1,61,2413,0,2,364.9000000022352,142,L
2023-04-04T14:49:08Z,9eprutwa,serial-reaction-time,1,P,4,1,62,2413,0,1,395.6000000014901,421,H
2023-04-04T14:49:09Z,9eprutwa,serial-reaction-time,1,R,4,1,63,2413,0,1,335.9000000022352,211,L
2023-04-04T14:49:09Z,9eprutwa,serial-reaction-time,1,P,4,1,64,2413,0,3,378.8999999985099,113,H
2023-04-04T14:49:10Z,9eprutwa,serial-reaction-time,1,R,4,1,65,2413,0,3,285.20000000298023,133,H
2023-04-04T14:49:10Z,9eprutwa,serial-reaction-time,1,P,4,1,66,2413,0,2,351,332,H
2023-04-04T14:49:11Z,9eprutwa,serial-reaction-time,1,R,4,1,67,2413,0,4,328.19999999925494,324,L
2023-04-04T14:49:11Z,9eprutwa,serial-reaction-time,1,P,4,1,68,2413,0,4,313.19999999925494,244,H
2023-04-04T14:49:12Z,9eprutwa,serial-reaction-time,1,R,4,1,69,2413,0,4,318.4000000022352,444,R
2023-04-04T14:49:12Z,9eprutwa,serial-reaction-time,1,P,4,1,70,2413,0,1,313.69999999925494,441,H
2023-04-04T14:49:13Z,9eprutwa,serial-reaction-time,1,R,4,1,71,2413,0,2,364.1000000014901,412,L
2023-04-04T14:49:13Z,9eprutwa,serial-reaction-time,1,P,4,1,72,2413,0,3,314,123,H
2023-04-04T14:49:13Z,9eprutwa,serial-reaction-time,1,R,4,1,73,2413,0,4,310.30000000074506,234,H
2023-04-04T14:49:14Z,9eprutwa,serial-reaction-time,1,P,4,1,74,2413,0,2,364.4000000022352,342,H
2023-04-04T14:49:14Z,9eprutwa,serial-reaction-time,1,R,4,1,75,2413,0,4,359.19999999925494,424,T
2023-04-04T14:49:15Z,9eprutwa,serial-reaction-time,1,P,4,1,76,2413,0,4,324.3999999985099,244,H
2023-04-04T14:49:15Z,9eprutwa,serial-reaction-time,1,R,4,1,77,2413,0,1,344.0999999977648,441,H
2023-04-04T14:49:16Z,9eprutwa,serial-reaction-time,1,P,4,1,78,2413,0,1,285.3999999985099,411,H
2023-04-04T14:49:16Z,9eprutwa,serial-reaction-time,1,R,4,1,79,2413,0,2,360.80000000074506,112,L
2023-04-04T14:49:17Z,9eprutwa,serial-reaction-time,1,P,4,1,80,2413,0,3,328.20000000298023,123,H
2023-04-04T14:49:22Z,9eprutwa,html-keyboard-response,NA,NA,NA,NA,NA,NA,NA,NA,NA,NA,NA
2023-04-04T14:49:23Z,9eprutwa,html-keyboard-response,NA,NA,NA,NA,NA,NA,NA,NA,NA,NA,NA
2023-04-04T14:49:24Z,9eprutwa,serial-reaction-time,1,R,5,1,1,2413,0,2,287.19999999925494,2,X
2023-04-04T14:49:24Z,9eprutwa,serial-reaction-time,1,P,5,1,2,2413,0,2,293,22,X
2023-04-04T14:49:25Z,9eprutwa,serial-reaction-time,1,R,5,1,3,2413,0,1,320.1000000014901,221,L
2023-04-04T14:49:25Z,9eprutwa,serial-reaction-time,1,P,5,1,4,2413,0,4,356.30000000074506,214,H
2023-04-04T14:49:26Z,9eprutwa,serial-reaction-time,1,R,5,1,5,2413,0,1,337.70000000298023,141,T
2023-04-04T14:49:26Z,9eprutwa,serial-reaction-time,1,P,5,1,6,2413,0,1,238.5,411,H
2023-04-04T14:49:27Z,9eprutwa,serial-reaction-time,1,R,5,1,7,2413,0,1,305.5,111,R
2023-04-04T14:49:27Z,9eprutwa,serial-reaction-time,1,P,5,1,8,2413,0,3,332.30000000074506,113,H
2023-04-04T14:49:28Z,9eprutwa,serial-reaction-time,1,R,5,1,9,2413,0,3,266.9000000022352,133,H
2023-04-04T14:49:28Z,9eprutwa,serial-reaction-time,1,P,5,1,10,2413,0,2,365.30000000074506,332,H
2023-04-04T14:49:29Z,9eprutwa,serial-reaction-time,1,R,5,1,11,2413,0,2,292.69999999925494,322,H
2023-04-04T14:49:29Z,9eprutwa,serial-reaction-time,1,P,5,1,12,2413,0,4,328.3999999985099,224,H
2023-04-04T14:49:29Z,9eprutwa,serial-reaction-time,1,R,5,1,13,2413,0,4,277.69999999925494,244,H
2023-04-04T14:49:30Z,9eprutwa,serial-reaction-time,1,P,5,1,14,2413,0,1,340.69999999925494,441,H
2023-04-04T14:49:30Z,9eprutwa,serial-reaction-time,1,R,5,1,15,2413,0,2,336.5,412,L
2023-04-04T14:49:31Z,9eprutwa,serial-reaction-time,1,P,5,1,16,2413,0,3,318.30000000074506,123,H
2023-04-04T14:49:31Z,9eprutwa,serial-reaction-time,1,R,5,1,17,2413,0,1,363.1000000014901,231,L
2023-04-04T14:49:32Z,9eprutwa,serial-reaction-time,1,P,5,1,18,2413,0,2,334.9000000022352,312,H
2023-04-04T14:49:32Z,9eprutwa,serial-reaction-time,1,R,5,1,19,2413,0,1,331.80000000074506,121,T
2023-04-04T14:49:33Z,9eprutwa,serial-reaction-time,1,P,5,1,20,2413,0,4,350.1000000014901,214,H
2023-04-04T14:49:33Z,9eprutwa,serial-reaction-time,1,R,5,1,21,2413,0,2,334.69999999925494,142,L
2023-04-04T14:49:34Z,9eprutwa,serial-reaction-time,1,P,5,1,22,2413,0,1,335.6000000014901,421,H
2023-04-04T14:49:34Z,9eprutwa,serial-reaction-time,1,R,5,1,23,2413,0,3,296.69999999925494,213,L
2023-04-04T14:49:35Z,9eprutwa,serial-reaction-time,1,P,5,1,24,2413,0,3,322.30000000074506,133,H
2023-04-04T14:49:35Z,9eprutwa,serial-reaction-time,1,R,5,1,25,2413,0,1,334.4000000022352,331,L
2023-04-04T14:49:36Z,9eprutwa,serial-reaction-time,1,P,5,1,26,2413,0,2,310.9000000022352,312,H
2023-04-04T14:49:36Z,9eprutwa,serial-reaction-time,1,R,5,1,27,2413,0,1,345.70000000298023,121,T
2023-04-04T14:49:36Z,9eprutwa,serial-reaction-time,1,P,5,1,28,2413,0,4,353.1000000014901,214,H
2023-04-04T14:49:37Z,9eprutwa,serial-reaction-time,1,R,5,1,29,2413,0,1,338.9000000022352,141,T
2023-04-04T14:49:37Z,9eprutwa,serial-reaction-time,1,P,5,1,30,2413,0,1,334.8999999985099,411,H
2023-04-04T14:49:38Z,9eprutwa,serial-reaction-time,1,R,5,1,31,2413,0,2,371.30000000074506,112,L
2023-04-04T14:49:38Z,9eprutwa,serial-reaction-time,1,P,5,1,32,2413,0,3,337.6000000014901,123,H
2023-04-04T14:49:39Z,9eprutwa,serial-reaction-time,1,R,5,1,33,2413,0,3,310.9000000022352,233,L
2023-04-04T14:49:39Z,9eprutwa,serial-reaction-time,1,P,5,1,34,2413,0,2,323.1000000014901,332,H
2023-04-04T14:49:40Z,9eprutwa,serial-reaction-time,1,R,5,1,35,2413,0,2,319.70000000298023,322,H
2023-04-04T14:49:40Z,9eprutwa,serial-reaction-time,1,P,5,1,36,2413,0,4,332.4000000022352,224,H
2023-04-04T14:49:41Z,9eprutwa,serial-reaction-time,1,R,5,1,37,2413,0,4,327.3999999985099,244,H
2023-04-04T14:49:41Z,9eprutwa,serial-reaction-time,1,P,5,1,38,2413,0,1,323.30000000074506,441,H
2023-04-04T14:49:42Z,9eprutwa,serial-reaction-time,1,R,5,1,39,2413,0,2,320.20000000298023,412,L
2023-04-04T14:49:42Z,9eprutwa,serial-reaction-time,1,P,5,1,40,2413,0,3,299.1000000014901,123,H
2023-04-04T14:49:43Z,9eprutwa,serial-reaction-time,1,R,5,1,41,2413,0,1,340,231,L
2023-04-04T14:49:43Z,9eprutwa,serial-reaction-time,1,P,5,1,42,2413,0,2,330.9000000022352,312,H
2023-04-04T14:49:44Z,9eprutwa,serial-reaction-time,1,R,5,1,43,2413,0,1,329.29999999701977,121,T
2023-04-04T14:49:44Z,9eprutwa,serial-reaction-time,NA,P,5,1,44,2413,0,4,334.9000000022352,214,H
2023-04-04T14:49:44Z,9eprutwa,serial-reaction-time,1,P,5,0,44,2413,0,4,370.30000000447035,214,H
2023-04-04T14:49:45Z,9eprutwa,serial-reaction-time,1,R,5,1,45,2413,0,4,377.19999999925494,144,L
2023-04-04T14:49:45Z,9eprutwa,serial-reaction-time,1,P,5,1,46,2413,0,1,347.80000000074506,441,H
2023-04-04T14:49:46Z,9eprutwa,serial-reaction-time,1,R,5,1,47,2413,0,2,357.69999999925494,412,L
2023-04-04T14:49:46Z,9eprutwa,serial-reaction-time,1,P,5,1,48,2413,0,3,330.30000000074506,123,H
2023-04-04T14:49:46Z,9eprutwa,serial-reaction-time,1,R,5,1,49,2413,0,3,301.6000000014901,233,L
2023-04-04T14:49:47Z,9eprutwa,serial-reaction-time,1,P,5,1,50,2413,0,2,524,332,H
2023-04-04T14:49:48Z,9eprutwa,serial-reaction-time,1,R,5,1,51,2413,0,1,311.1000000014901,321,L
2023-04-04T14:49:48Z,9eprutwa,serial-reaction-time,1,P,5,1,52,2413,0,4,335.5,214,H
2023-04-04T14:49:48Z,9eprutwa,serial-reaction-time,1,R,5,1,53,2413,0,4,334.6000000014901,144,L
2023-04-04T14:49:49Z,9eprutwa,serial-reaction-time,1,P,5,1,54,2413,0,1,354.69999999925494,441,H
2023-04-04T14:49:49Z,9eprutwa,serial-reaction-time,1,R,5,1,55,2413,0,4,375,414,T
2023-04-04T14:49:50Z,9eprutwa,serial-reaction-time,1,P,5,1,56,2413,0,3,371.6000000014901,143,H
2023-04-04T14:49:50Z,9eprutwa,serial-reaction-time,1,R,5,1,57,2413,0,3,302.80000000074506,433,L
2023-04-04T14:49:51Z,9eprutwa,serial-reaction-time,1,P,5,1,58,2413,0,2,358,332,H
2023-04-04T14:49:51Z,9eprutwa,serial-reaction-time,1,R,5,1,59,2413,0,1,331.69999999925494,321,L
2023-04-04T14:49:52Z,9eprutwa,serial-reaction-time,NA,P,5,1,60,2413,0,4,341.1000000014901,214,H
2023-04-04T14:49:52Z,9eprutwa,serial-reaction-time,1,P,5,0,60,2413,0,4,385.30000000074506,214,H
2023-04-04T14:49:52Z,9eprutwa,serial-reaction-time,1,R,5,1,61,2413,0,2,373.30000000074506,142,L
2023-04-04T14:49:53Z,9eprutwa,serial-reaction-time,1,P,5,1,62,2413,0,1,323.5,421,H
2023-04-04T14:49:53Z,9eprutwa,serial-reaction-time,1,R,5,1,63,2413,0,1,329.6000000014901,211,L
2023-04-04T14:49:54Z,9eprutwa,serial-reaction-time,1,P,5,1,64,2413,0,3,317.30000000074506,113,H
2023-04-04T14:49:54Z,9eprutwa,serial-reaction-time,1,R,5,1,65,2413,0,4,371.3999999985099,134,L
2023-04-04T14:49:55Z,9eprutwa,serial-reaction-time,1,P,5,1,66,2413,0,2,467.3999999985099,342,H
2023-04-04T14:49:55Z,9eprutwa,serial-reaction-time,1,R,5,1,67,2413,0,4,336.5,424,T
2023-04-04T14:49:56Z,9eprutwa,serial-reaction-time,1,P,5,1,68,2413,0,4,320.80000000074506,244,H
2023-04-04T14:49:56Z,9eprutwa,serial-reaction-time,1,R,5,1,69,2413,0,3,366.6000000014901,443,L
2023-04-04T14:49:57Z,9eprutwa,serial-reaction-time,NA,P,5,1,70,2413,0,1,310.69999999925494,431,H
2023-04-04T14:49:57Z,9eprutwa,serial-reaction-time,1,P,5,0,70,2413,0,1,691.3000000007451,431,H
2023-04-04T14:49:58Z,9eprutwa,serial-reaction-time,1,R,5,1,71,2413,0,1,311.9000000022352,311,L
2023-04-04T14:49:58Z,9eprutwa,serial-reaction-time,1,P,5,1,72,2413,0,3,343.4000000022352,113,H
2023-04-04T14:49:59Z,9eprutwa,serial-reaction-time,1,R,5,1,73,2413,0,3,276.80000000074506,133,H
2023-04-04T14:49:59Z,9eprutwa,serial-reaction-time,1,P,5,1,74,2413,0,2,396,332,H
2023-04-04T14:50:00Z,9eprutwa,serial-reaction-time,1,R,5,1,75,2413,0,4,370.79999999701977,324,L
2023-04-04T14:50:00Z,9eprutwa,serial-reaction-time,1,P,5,1,76,2413,0,4,324.19999999925494,244,H
2023-04-04T14:50:01Z,9eprutwa,serial-reaction-time,1,R,5,1,77,2413,0,1,361.69999999925494,441,H
2023-04-04T14:50:01Z,9eprutwa,serial-reaction-time,1,P,5,1,78,2413,0,1,343.80000000074506,411,H
2023-04-04T14:50:01Z,9eprutwa,serial-reaction-time,1,R,5,1,79,2413,0,3,303.6000000014901,113,H
2023-04-04T14:50:02Z,9eprutwa,serial-reaction-time,1,P,5,1,80,2413,0,3,306.69999999925494,133,H
2023-04-04T14:50:07Z,9eprutwa,html-keyboard-response,NA,NA,NA,NA,NA,NA,NA,NA,NA,NA,NA
2023-04-04T14:50:10Z,9eprutwa,html-keyboard-response,NA,NA,NA,NA,NA,NA,NA,NA,NA,NA,NA
2023-04-04T14:50:11Z,9eprutwa,fullscreen,NA,NA,NA,NA,NA,NA,NA,NA,NA,NA,NA
2023-04-04T14:51:16Z,mtu8p5sa,fullscreen,NA,NA,NA,NA,NA,NA,NA,NA,NA,NA,NA
2023-04-04T14:51:19Z,mtu8p5sa,html-keyboard-response,NA,NA,NA,NA,NA,NA,NA,NA,NA,NA,NA
2023-04-04T14:51:20Z,mtu8p5sa,serial-reaction-time,1,R,1,1,1,2134,0,4,363.89999997615814,4,X
2023-04-04T14:51:21Z,mtu8p5sa,serial-reaction-time,1,P,1,1,2,2134,0,2,425.2999999523163,42,X
2023-04-04T14:51:21Z,mtu8p5sa,serial-reaction-time,1,R,1,1,3,2134,0,4,298.2000000476837,424,T
2023-04-04T14:51:21Z,mtu8p5sa,serial-reaction-time,1,P,1,1,4,2134,0,1,357.2000000476837,241,H
2023-04-04T14:51:22Z,mtu8p5sa,serial-reaction-time,1,R,1,1,5,2134,0,3,334.2000000476837,413,L
2023-04-04T14:51:22Z,mtu8p5sa,serial-reaction-time,1,P,1,1,6,2134,0,3,272.10000002384186,133,H
2023-04-04T14:51:23Z,mtu8p5sa,serial-reaction-time,1,R,1,1,7,2134,0,2,425.10000002384186,332,L
2023-04-04T14:51:23Z,mtu8p5sa,serial-reaction-time,1,P,1,1,8,2134,0,4,304.7999999523163,324,H
2023-04-04T14:51:24Z,mtu8p5sa,serial-reaction-time,1,R,1,1,9,2134,0,1,344.2000000476837,241,H
2023-04-04T14:51:24Z,mtu8p5sa,serial-reaction-time,1,P,1,1,10,2134,0,2,330.5,412,H
2023-04-04T14:51:25Z,mtu8p5sa,serial-reaction-time,1,R,1,1,11,2134,0,1,331.7999999523163,121,T
2023-04-04T14:51:25Z,mtu8p5sa,serial-reaction-time,1,P,1,1,12,2134,0,1,322.1999999284744,211,H
2023-04-04T14:51:26Z,mtu8p5sa,serial-reaction-time,1,R,1,1,13,2134,0,3,299.39999997615814,113,H
2023-04-04T14:51:26Z,mtu8p5sa,serial-reaction-time,1,P,1,1,14,2134,0,3,289,133,H
2023-04-04T14:51:26Z,mtu8p5sa,serial-reaction-time,1,R,1,1,15,2134,0,1,306.2999999523163,331,L
2023-04-04T14:51:27Z,mtu8p5sa,serial-reaction-time,1,P,1,1,16,2134,0,4,347.1999999284744,314,H
2023-04-04T14:51:27Z,mtu8p5sa,serial-reaction-time,1,R,1,1,17,2134,0,4,273.1999999284744,144,L
2023-04-04T14:51:28Z,mtu8p5sa,serial-reaction-time,1,P,1,1,18,2134,0,2,310.89999997615814,442,H
2023-04-04T14:51:28Z,mtu8p5sa,serial-reaction-time,1,R,1,1,19,2134,0,1,328.40000009536743,421,L
2023-04-04T14:51:29Z,mtu8p5sa,serial-reaction-time,1,P,1,1,20,2134,0,1,286.10000002384186,211,H
2023-04-04T14:51:29Z,mtu8p5sa,serial-reaction-time,1,R,1,1,21,2134,0,3,289.3000000715256,113,H
2023-04-04T14:51:29Z,mtu8p5sa,serial-reaction-time,1,P,1,1,22,2134,0,3,235.69999992847443,133,H
2023-04-04T14:51:30Z,mtu8p5sa,serial-reaction-time,1,R,1,1,23,2134,0,4,273.7000000476837,334,H
2023-04-04T14:51:30Z,mtu8p5sa,serial-reaction-time,1,P,1,1,24,2134,0,4,293.1999999284744,344,H
2023-04-04T14:51:31Z,mtu8p5sa,serial-reaction-time,1,R,1,1,25,2134,0,2,411,442,H
2023-04-04T14:51:31Z,mtu8p5sa,serial-reaction-time,1,P,1,1,26,2134,0,2,295.10000002384186,422,H
2023-04-04T14:51:32Z,mtu8p5sa,serial-reaction-time,1,R,1,1,27,2134,0,1,270.2000000476837,221,H
2023-04-04T14:51:32Z,mtu8p5sa,serial-reaction-time,1,P,1,1,28,2134,0,1,270.39999997615814,211,H
2023-04-04T14:51:32Z,mtu8p5sa,serial-reaction-time,1,R,1,1,29,2134,0,1,299.3000000715256,111,R
2023-04-04T14:51:33Z,mtu8p5sa,serial-reaction-time,1,P,1,1,30,2134,0,3,331.10000002384186,113,H
2023-04-04T14:51:33Z,mtu8p5sa,serial-reaction-time,1,R,1,1,31,2134,0,1,277.2000000476837,131,T
2023-04-04T14:51:34Z,mtu8p5sa,serial-reaction-time,1,P,1,1,32,2134,0,4,267,314,H
2023-04-04T14:51:34Z,mtu8p5sa,serial-reaction-time,1,R,1,1,33,2134,0,4,274.89999997615814,144,L
2023-04-04T14:51:35Z,mtu8p5sa,serial-reaction-time,1,P,1,1,34,2134,0,2,281.8000000715256,442,H
2023-04-04T14:51:35Z,mtu8p5sa,serial-reaction-time,1,R,1,1,35,2134,0,3,320.40000009536743,423,L
2023-04-04T14:51:35Z,mtu8p5sa,serial-reaction-time,1,P,1,1,36,2134,0,1,267.1999999284744,231,H
2023-04-04T14:51:36Z,mtu8p5sa,serial-reaction-time,1,R,1,1,37,2134,0,3,301.10000002384186,313,T
2023-04-04T14:51:36Z,mtu8p5sa,serial-reaction-time,1,P,1,1,38,2134,0,3,279.5,133,H
2023-04-04T14:51:37Z,mtu8p5sa,serial-reaction-time,1,R,1,1,39,2134,0,3,278.7999999523163,333,R
2023-04-04T14:51:37Z,mtu8p5sa,serial-reaction-time,1,P,1,1,40,2134,0,4,283.5,334,H
2023-04-04T14:51:38Z,mtu8p5sa,serial-reaction-time,1,R,1,1,41,2134,0,1,327.5,341,L
2023-04-04T14:51:38Z,mtu8p5sa,serial-reaction-time,1,P,1,1,42,2134,0,2,291.10000002384186,412,H
2023-04-04T14:51:38Z,mtu8p5sa,serial-reaction-time,1,R,1,1,43,2134,0,4,296.2999999523163,124,L
2023-04-04T14:51:39Z,mtu8p5sa,serial-reaction-time,1,P,1,1,44,2134,0,1,343.7999999523163,241,H
2023-04-04T14:51:39Z,mtu8p5sa,serial-reaction-time,1,R,1,1,45,2134,0,1,268.6999999284744,411,L
2023-04-04T14:51:40Z,mtu8p5sa,serial-reaction-time,1,P,1,1,46,2134,0,3,274.89999997615814,113,H
2023-04-04T14:51:40Z,mtu8p5sa,serial-reaction-time,1,R,1,1,47,2134,0,2,316,132,L
2023-04-04T14:51:41Z,mtu8p5sa,serial-reaction-time,1,P,1,1,48,2134,0,4,281,324,H
2023-04-04T14:51:41Z,mtu8p5sa,serial-reaction-time,1,R,1,1,49,2134,0,4,291.2000000476837,244,L
2023-04-04T14:51:41Z,mtu8p5sa,serial-reaction-time,1,P,1,1,50,2134,0,2,325.2000000476837,442,H
2023-04-04T14:51:42Z,mtu8p5sa,serial-reaction-time,1,R,1,1,51,2134,0,4,278.2999999523163,424,T
2023-04-04T14:51:42Z,mtu8p5sa,serial-reaction-time,1,P,1,1,52,2134,0,1,333.39999997615814,241,H
2023-04-04T14:51:43Z,mtu8p5sa,serial-reaction-time,NA,R,1,1,53,2134,0,4,302.8000000715256,414,T
2023-04-04T14:51:43Z,mtu8p5sa,serial-reaction-time,1,R,1,0,53,2134,0,4,555.0000001192093,414,T
2023-04-04T14:51:43Z,mtu8p5sa,serial-reaction-time,1,P,1,1,54,2134,0,3,329.39999997615814,143,H
2023-04-04T14:51:44Z,mtu8p5sa,serial-reaction-time,1,R,1,1,55,2134,0,3,245.30000007152557,433,L
2023-04-04T14:51:44Z,mtu8p5sa,serial-reaction-time,1,P,1,1,56,2134,0,4,267.10000002384186,334,H
2023-04-04T14:51:45Z,mtu8p5sa,serial-reaction-time,1,R,1,1,57,2134,0,3,263.7000000476837,343,T
2023-04-04T14:51:45Z,mtu8p5sa,serial-reaction-time,NA,P,1,1,58,2134,0,2,354.5,432,H
2023-04-04T14:51:45Z,mtu8p5sa,serial-reaction-time,1,P,1,0,58,2134,0,2,408.60000002384186,432,H
2023-04-04T14:51:46Z,mtu8p5sa,serial-reaction-time,1,R,1,1,59,2134,0,1,299.39999997615814,321,L
2023-04-04T14:51:46Z,mtu8p5sa,serial-reaction-time,1,P,1,1,60,2134,0,1,273.39999997615814,211,H
2023-04-04T14:51:46Z,mtu8p5sa,serial-reaction-time,1,R,1,1,61,2134,0,1,231.89999997615817,111,R
2023-04-04T14:51:47Z,mtu8p5sa,serial-reaction-time,NA,P,1,1,62,2134,0,3,270.7000000476837,113,H
2023-04-04T14:51:47Z,mtu8p5sa,serial-reaction-time,1,P,1,0,62,2134,0,3,480.40000009536743,113,H
2023-04-04T14:51:47Z,mtu8p5sa,serial-reaction-time,NA,R,1,1,63,2134,0,1,325.7000000476837,131,T
2023-04-04T14:51:48Z,mtu8p5sa,serial-reaction-time,1,R,1,0,63,2134,0,1,523.4000000953674,131,T
2023-04-04T14:51:48Z,mtu8p5sa,serial-reaction-time,1,P,1,1,64,2134,0,4,274.89999997615814,314,H
2023-04-04T14:51:48Z,mtu8p5sa,serial-reaction-time,1,R,1,1,65,2134,0,2,382.2999999523163,142,L
2023-04-04T14:51:49Z,mtu8p5sa,serial-reaction-time,1,P,1,1,66,2134,0,2,261.7000000476837,422,H
2023-04-04T14:51:49Z,mtu8p5sa,serial-reaction-time,1,R,1,1,67,2134,0,4,305.8000000715256,224,L
2023-04-04T14:51:50Z,mtu8p5sa,serial-reaction-time,1,P,1,1,68,2134,0,1,379.10000002384186,241,H
2023-04-04T14:51:50Z,mtu8p5sa,serial-reaction-time,1,R,1,1,69,2134,0,4,365.10000002384186,414,T
2023-04-04T14:51:51Z,mtu8p5sa,serial-reaction-time,1,P,1,1,70,2134,0,3,326,143,H
2023-04-04T14:51:51Z,mtu8p5sa,serial-reaction-time,1,R,1,1,71,2134,0,3,236.39999997615817,433,L
2023-04-04T14:51:51Z,mtu8p5sa,serial-reaction-time,1,P,1,1,72,2134,0,4,279.60000002384186,334,H
2023-04-04T14:51:52Z,mtu8p5sa,serial-reaction-time,1,R,1,1,73,2134,0,1,324,341,L
2023-04-04T14:51:52Z,mtu8p5sa,serial-reaction-time,1,P,1,1,74,2134,0,2,358.39999997615814,412,H
2023-04-04T14:51:53Z,mtu8p5sa,serial-reaction-time,NA,R,1,1,75,2134,0,1,178.79999995231628,121,T
2023-04-04T14:51:53Z,mtu8p5sa,serial-reaction-time,1,R,1,0,75,2134,0,1,374.39999997615814,121,T
2023-04-04T14:51:53Z,mtu8p5sa,serial-reaction-time,1,P,1,1,76,2134,0,1,246.19999992847443,211,H
2023-04-04T14:51:54Z,mtu8p5sa,serial-reaction-time,1,R,1,1,77,2134,0,1,277.3000000715256,111,R
2023-04-04T14:51:54Z,mtu8p5sa,serial-reaction-time,1,P,1,1,78,2134,0,3,366.10000002384186,113,H
2023-04-04T14:51:54Z,mtu8p5sa,serial-reaction-time,1,R,1,1,79,2134,0,3,195.70000004768372,133,H
2023-04-04T14:51:55Z,mtu8p5sa,serial-reaction-time,1,P,1,1,80,2134,0,4,290.89999997615814,334,H
2023-04-04T14:52:00Z,mtu8p5sa,html-keyboard-response,NA,NA,NA,NA,NA,NA,NA,NA,NA,NA,NA
2023-04-04T14:52:00Z,mtu8p5sa,html-keyboard-response,NA,NA,NA,NA,NA,NA,NA,NA,NA,NA,NA
2023-04-04T14:52:01Z,mtu8p5sa,serial-reaction-time,1,R,2,1,1,2134,0,3,321.3000000715256,3,X
2023-04-04T14:52:02Z,mtu8p5sa,serial-reaction-time,1,P,2,1,2,2134,0,2,326.60000002384186,32,X
2023-04-04T14:52:02Z,mtu8p5sa,serial-reaction-time,1,R,2,1,3,2134,0,3,301.8000000715256,323,T
2023-04-04T14:52:03Z,mtu8p5sa,serial-reaction-time,1,P,2,1,4,2134,0,1,300.7000000476837,231,H
2023-04-04T14:52:03Z,mtu8p5sa,serial-reaction-time,1,R,2,1,5,2134,0,2,282.7000000476837,312,L
2023-04-04T14:52:04Z,mtu8p5sa,serial-reaction-time,1,P,2,1,6,2134,0,3,368.39999997615814,123,H
2023-04-04T14:52:04Z,mtu8p5sa,serial-reaction-time,1,R,2,1,7,2134,0,3,249.79999995231628,233,L
2023-04-04T14:52:04Z,mtu8p5sa,serial-reaction-time,1,P,2,1,8,2134,0,4,267.39999997615814,334,H
2023-04-04T14:52:05Z,mtu8p5sa,serial-reaction-time,1,R,2,1,9,2134,0,3,320.1999999284744,343,T
2023-04-04T14:52:05Z,mtu8p5sa,serial-reaction-time,1,P,2,1,10,2134,0,2,359.7999999523163,432,H
2023-04-04T14:52:06Z,mtu8p5sa,serial-reaction-time,1,R,2,1,11,2134,0,1,355.8000000715256,321,L
2023-04-04T14:52:06Z,mtu8p5sa,serial-reaction-time,1,P,2,1,12,2134,0,1,250.79999995231628,211,H
2023-04-04T14:52:07Z,mtu8p5sa,serial-reaction-time,1,R,2,1,13,2134,0,4,303,114,L
2023-04-04T14:52:07Z,mtu8p5sa,serial-reaction-time,1,P,2,1,14,2134,0,3,264.60000002384186,143,H
2023-04-04T14:52:07Z,mtu8p5sa,serial-reaction-time,1,R,2,1,15,2134,0,4,302,434,T
2023-04-04T14:52:08Z,mtu8p5sa,serial-reaction-time,1,P,2,1,16,2134,0,4,305.5,344,H
2023-04-04T14:52:08Z,mtu8p5sa,serial-reaction-time,1,R,2,1,17,2134,0,4,278.10000002384186,444,R
2023-04-04T14:52:09Z,mtu8p5sa,serial-reaction-time,1,P,2,1,18,2134,0,2,321.60000002384186,442,H
2023-04-04T14:52:09Z,mtu8p5sa,serial-reaction-time,1,R,2,1,19,2134,0,4,292.60000002384186,424,T
2023-04-04T14:52:10Z,mtu8p5sa,serial-reaction-time,NA,P,2,1,20,2134,0,1,327.60000002384186,241,H
2023-04-04T14:52:10Z,mtu8p5sa,serial-reaction-time,1,P,2,0,20,2134,0,1,563.1000000238419,241,H
2023-04-04T14:52:10Z,mtu8p5sa,serial-reaction-time,1,R,2,1,21,2134,0,1,248.79999995231628,411,L
2023-04-04T14:52:11Z,mtu8p5sa,serial-reaction-time,1,P,2,1,22,2134,0,3,327.1999999284744,113,H
2023-04-04T14:52:11Z,mtu8p5sa,serial-reaction-time,1,R,2,1,23,2134,0,2,347.89999997615814,132,L
2023-04-04T14:52:12Z,mtu8p5sa,serial-reaction-time,1,P,2,1,24,2134,0,4,300.3000000715256,324,H
2023-04-04T14:52:12Z,mtu8p5sa,serial-reaction-time,1,R,2,1,25,2134,0,2,295.7999999523163,242,T
2023-04-04T14:52:12Z,mtu8p5sa,serial-reaction-time,1,P,2,1,26,2134,0,2,257.10000002384186,422,H
2023-04-04T14:52:13Z,mtu8p5sa,serial-reaction-time,1,R,2,1,27,2134,0,2,218.80000007152557,222,R
2023-04-04T14:52:13Z,mtu8p5sa,serial-reaction-time,1,P,2,1,28,2134,0,1,282.7999999523163,221,H
2023-04-04T14:52:13Z,mtu8p5sa,serial-reaction-time,1,R,2,1,29,2134,0,1,214.10000002384183,211,H
2023-04-04T14:52:14Z,mtu8p5sa,serial-reaction-time,1,P,2,1,30,2134,0,3,343.90000009536743,113,H
2023-04-04T14:52:14Z,mtu8p5sa,serial-reaction-time,NA,R,2,1,31,2134,0,2,198.5,132,L
2023-04-04T14:52:14Z,mtu8p5sa,serial-reaction-time,1,R,2,0,31,2134,0,2,401.2999999523163,132,L
2023-04-04T14:52:15Z,mtu8p5sa,serial-reaction-time,1,P,2,1,32,2134,0,4,266.6999999284744,324,H
2023-04-04T14:52:15Z,mtu8p5sa,serial-reaction-time,NA,R,2,1,33,2134,0,1,264.60000002384186,241,H
2023-04-04T14:52:15Z,mtu8p5sa,serial-reaction-time,1,R,2,0,33,2134,0,1,440.0000001192093,241,H
2023-04-04T14:52:16Z,mtu8p5sa,serial-reaction-time,1,P,2,1,34,2134,0,2,380.2999999523163,412,H
2023-04-04T14:52:16Z,mtu8p5sa,serial-reaction-time,1,R,2,1,35,2134,0,3,294.7000000476837,123,H
2023-04-04T14:52:17Z,mtu8p5sa,serial-reaction-time,1,P,2,1,36,2134,0,1,292.2000000476837,231,H
2023-04-04T14:52:17Z,mtu8p5sa,serial-reaction-time,1,R,2,1,37,2134,0,4,349.59999990463257,314,H
2023-04-04T14:52:18Z,mtu8p5sa,serial-reaction-time,1,P,2,1,38,2134,0,3,296.5,143,H
2023-04-04T14:52:18Z,mtu8p5sa,serial-reaction-time,1,R,2,1,39,2134,0,2,266.8000000715256,432,H
2023-04-04T14:52:18Z,mtu8p5sa,serial-reaction-time,1,P,2,1,40,2134,0,4,289.10000002384186,324,H
2023-04-04T14:52:19Z,mtu8p5sa,serial-reaction-time,1,R,2,1,41,2134,0,1,371.6999999284744,241,H
2023-04-04T14:52:19Z,mtu8p5sa,serial-reaction-time,1,P,2,1,42,2134,0,2,284.39999997615814,412,H
2023-04-04T14:52:20Z,mtu8p5sa,serial-reaction-time,1,R,2,1,43,2134,0,2,253.19999992847443,122,L
2023-04-04T14:52:20Z,mtu8p5sa,serial-reaction-time,1,P,2,1,44,2134,0,1,260.89999997615814,221,H
2023-04-04T14:52:20Z,mtu8p5sa,serial-reaction-time,1,R,2,1,45,2134,0,1,246.60000002384183,211,H
2023-04-04T14:52:21Z,mtu8p5sa,serial-reaction-time,1,P,2,1,46,2134,0,3,278.39999997615814,113,H
2023-04-04T14:52:21Z,mtu8p5sa,serial-reaction-time,1,R,2,1,47,2134,0,4,278,134,L
2023-04-04T14:52:22Z,mtu8p5sa,serial-reaction-time,1,P,2,1,48,2134,0,4,227.5,344,H
2023-04-04T14:52:22Z,mtu8p5sa,serial-reaction-time,1,R,2,1,49,2134,0,1,290.8000000715256,441,L
2023-04-04T14:52:23Z,mtu8p5sa,serial-reaction-time,1,P,2,1,50,2134,0,2,376.5,412,H
2023-04-04T14:52:23Z,mtu8p5sa,serial-reaction-time,NA,R,2,1,51,2134,0,3,218.70000004768372,123,H
2023-04-04T14:52:23Z,mtu8p5sa,serial-reaction-time,1,R,2,0,51,2134,0,3,409.39999997615814,123,H
2023-04-04T14:52:23Z,mtu8p5sa,serial-reaction-time,1,P,2,1,52,2134,0,1,260.89999997615814,231,H
2023-04-04T14:52:24Z,mtu8p5sa,serial-reaction-time,1,R,2,1,53,2134,0,1,255.60000002384183,311,L
2023-04-04T14:52:24Z,mtu8p5sa,serial-reaction-time,1,P,2,1,54,2134,0,3,256.39999997615814,113,H
2023-04-04T14:52:25Z,mtu8p5sa,serial-reaction-time,1,R,2,1,55,2134,0,1,282.60000002384186,131,T
2023-04-04T14:52:25Z,mtu8p5sa,serial-reaction-time,1,P,2,1,56,2134,0,4,290.6999999284744,314,H
2023-04-04T14:52:25Z,mtu8p5sa,serial-reaction-time,1,R,2,1,57,2134,0,2,302.2000000476837,142,L
2023-04-04T14:52:26Z,mtu8p5sa,serial-reaction-time,1,P,2,1,58,2134,0,2,294.89999997615814,422,H
2023-04-04T14:52:26Z,mtu8p5sa,serial-reaction-time,1,R,2,1,59,2134,0,1,373.5,221,H
2023-04-04T14:52:27Z,mtu8p5sa,serial-reaction-time,1,P,2,1,60,2134,0,1,250.39999997615817,211,H
2023-04-04T14:52:27Z,mtu8p5sa,serial-reaction-time,NA,R,2,1,61,2134,0,2,193.69999992847443,112,L
2023-04-04T14:52:27Z,mtu8p5sa,serial-reaction-time,1,R,2,0,61,2134,0,2,420.1999999284744,112,L
2023-04-04T14:52:28Z,mtu8p5sa,serial-reaction-time,1,P,2,1,62,2134,0,3,311,123,H
2023-04-04T14:52:28Z,mtu8p5sa,serial-reaction-time,1,R,2,1,63,2134,0,3,200.09999990463257,233,L
2023-04-04T14:52:28Z,mtu8p5sa,serial-reaction-time,1,P,2,1,64,2134,0,4,272.7999999523163,334,H
2023-04-04T14:52:29Z,mtu8p5sa,serial-reaction-time,1,R,2,1,65,2134,0,2,350.10000002384186,342,L
2023-04-04T14:52:29Z,mtu8p5sa,serial-reaction-time,1,P,2,1,66,2134,0,2,194.60000002384183,422,H
2023-04-04T14:52:30Z,mtu8p5sa,serial-reaction-time,1,R,2,1,67,2134,0,1,277.5,221,H
2023-04-04T14:52:30Z,mtu8p5sa,serial-reaction-time,1,P,2,1,68,2134,0,1,248.40000009536743,211,H
2023-04-04T14:52:30Z,mtu8p5sa,serial-reaction-time,1,R,2,1,69,2134,0,3,269,113,H
2023-04-04T14:52:31Z,mtu8p5sa,serial-reaction-time,1,P,2,1,70,2134,0,3,193.59999990463257,133,H
2023-04-04T14:52:31Z,mtu8p5sa,serial-reaction-time,1,R,2,1,71,2134,0,3,261.10000002384186,333,R
2023-04-04T14:52:32Z,mtu8p5sa,serial-reaction-time,1,P,2,1,72,2134,0,4,280.2000000476837,334,H
2023-04-04T14:52:32Z,mtu8p5sa,serial-reaction-time,1,R,2,1,73,2134,0,4,191.70000004768372,344,H
2023-04-04T14:52:32Z,mtu8p5sa,serial-reaction-time,1,P,2,1,74,2134,0,2,385.8000000715256,442,H
2023-04-04T14:52:33Z,mtu8p5sa,serial-reaction-time,1,R,2,1,75,2134,0,2,233.60000002384183,422,H
2023-04-04T14:52:33Z,mtu8p5sa,serial-reaction-time,1,P,2,1,76,2134,0,1,297.90000009536743,221,H
2023-04-04T14:52:34Z,mtu8p5sa,serial-reaction-time,1,R,2,1,77,2134,0,3,330.8000000715256,213,L
2023-04-04T14:52:34Z,mtu8p5sa,serial-reaction-time,1,P,2,1,78,2134,0,3,190.10000002384183,133,H
2023-04-04T14:52:34Z,mtu8p5sa,serial-reaction-time,NA,R,2,1,79,2134,0,1,174.29999995231628,331,L
2023-04-04T14:52:34Z,mtu8p5sa,serial-reaction-time,1,R,2,0,79,2134,0,1,298.59999990463257,331,L
2023-04-04T14:52:35Z,mtu8p5sa,serial-reaction-time,1,P,2,1,80,2134,0,4,277,314,H
2023-04-04T14:52:40Z,mtu8p5sa,html-keyboard-response,NA,NA,NA,NA,NA,NA,NA,NA,NA,NA,NA
2023-04-04T14:52:40Z,mtu8p5sa,html-keyboard-response,NA,NA,NA,NA,NA,NA,NA,NA,NA,NA,NA
2023-04-04T14:52:41Z,mtu8p5sa,serial-reaction-time,1,R,3,1,1,2134,0,2,273.10000002384186,2,X
2023-04-04T14:52:42Z,mtu8p5sa,serial-reaction-time,1,P,3,1,2,2134,0,2,195.29999995231628,22,X
