datetime,id,trial_type,correct,p_or_r,block,first_response,trial_number,sequence,is_practice,correct_pos,cumulative_rt,actual_triplet,triplet_type
2023-03-16T13:51:10Z,5ckvwhwy,fullscreen,NA,NA,NA,NA,NA,NA,NA,NA,NA,NA,NA
2023-03-16T13:51:14Z,5ckvwhwy,html-keyboard-response,NA,NA,NA,NA,NA,NA,NA,NA,NA,NA,NA
2023-03-16T13:51:16Z,5ckvwhwy,serial-reaction-time,1,R,1,1,1,3124,0,2,756,2,X
2023-03-16T13:51:17Z,5ckvwhwy,serial-reaction-time,1,P,1,1,2,3124,0,3,402.90000000596046,23,X
2023-03-16T13:51:17Z,5ckvwhwy,serial-reaction-time,1,R,1,1,3,3124,0,3,379.40000000596046,233,L
2023-03-16T13:51:18Z,5ckvwhwy,serial-reaction-time,1,P,1,1,4,3124,0,1,422,331,H
2023-03-16T13:51:18Z,5ckvwhwy,serial-reaction-time,1,R,1,1,5,3124,0,3,393.2999999821186,313,T
2023-03-16T13:51:19Z,5ckvwhwy,serial-reaction-time,1,P,1,1,6,3124,0,2,455.5,132,H
2023-03-16T13:51:19Z,5ckvwhwy,serial-reaction-time,1,R,1,1,7,3124,0,4,348.2000000178814,324,L
2023-03-16T13:51:20Z,5ckvwhwy,serial-reaction-time,1,P,1,1,8,3124,0,4,360.7000000178814,244,H
2023-03-16T13:51:20Z,5ckvwhwy,serial-reaction-time,1,R,1,1,9,3124,0,2,453.59999999403954,442,L
2023-03-16T13:51:21Z,5ckvwhwy,serial-reaction-time,1,P,1,1,10,3124,0,3,323.19999998807907,423,H
2023-03-16T13:51:21Z,5ckvwhwy,serial-reaction-time,1,R,1,1,11,3124,0,3,339.09999999403954,233,L
2023-03-16T13:51:22Z,5ckvwhwy,serial-reaction-time,1,P,1,1,12,3124,0,1,387.5,331,H
2023-03-16T13:51:22Z,5ckvwhwy,serial-reaction-time,1,R,1,1,13,3124,0,4,370.40000000596046,314,L
2023-03-16T13:51:23Z,5ckvwhwy,serial-reaction-time,NA,P,1,1,14,3124,0,2,405.59999999403954,142,H
2023-03-16T13:51:23Z,5ckvwhwy,serial-reaction-time,NA,P,1,0,14,3124,0,2,722.7999999821186,142,H
2023-03-16T13:51:24Z,5ckvwhwy,serial-reaction-time,1,P,1,0,14,3124,0,2,1058.7999999821186,142,H
2023-03-16T13:51:24Z,5ckvwhwy,serial-reaction-time,1,R,1,1,15,3124,0,2,366.90000000596046,422,L
2023-03-16T13:51:25Z,5ckvwhwy,serial-reaction-time,1,P,1,1,16,3124,0,4,407.2999999821186,224,H
2023-03-16T13:51:25Z,5ckvwhwy,serial-reaction-time,1,R,1,1,17,3124,0,4,357.5,244,H
2023-03-16T13:51:26Z,5ckvwhwy,serial-reaction-time,1,P,1,1,18,3124,0,3,428.5,443,H
2023-03-16T13:51:26Z,5ckvwhwy,serial-reaction-time,1,R,1,1,19,3124,0,3,315,433,H
2023-03-16T13:51:27Z,5ckvwhwy,serial-reaction-time,1,P,1,1,20,3124,0,1,461.09999999403954,331,H
2023-03-16T13:51:27Z,5ckvwhwy,serial-reaction-time,1,R,1,1,21,3124,0,4,399.60000002384186,314,L
2023-03-16T13:51:28Z,5ckvwhwy,serial-reaction-time,1,P,1,1,22,3124,0,2,659.1999999880791,142,H
2023-03-16T13:51:29Z,5ckvwhwy,serial-reaction-time,NA,R,1,1,23,3124,0,4,336,424,T
2023-03-16T13:51:29Z,5ckvwhwy,serial-reaction-time,1,R,1,0,23,3124,0,4,641.5,424,T
2023-03-16T13:51:29Z,5ckvwhwy,serial-reaction-time,1,P,1,1,24,3124,0,4,331.2999999821186,244,H
2023-03-16T13:51:30Z,5ckvwhwy,serial-reaction-time,1,R,1,1,25,3124,0,3,507.5,443,H
2023-03-16T13:51:31Z,5ckvwhwy,serial-reaction-time,1,P,1,1,26,3124,0,3,298.2000000178814,433,H
2023-03-16T13:51:31Z,5ckvwhwy,serial-reaction-time,1,R,1,1,27,3124,0,1,423.7000000178814,331,H
2023-03-16T13:51:32Z,5ckvwhwy,serial-reaction-time,1,P,1,1,28,3124,0,1,301.90000000596046,311,H
2023-03-16T13:51:32Z,5ckvwhwy,serial-reaction-time,1,R,1,1,29,3124,0,1,382.5,111,R
2023-03-16T13:51:33Z,5ckvwhwy,serial-reaction-time,1,P,1,1,30,3124,0,2,509.59999999403954,112,H
2023-03-16T13:51:33Z,5ckvwhwy,serial-reaction-time,1,R,1,1,31,3124,0,2,306.90000000596046,122,H
2023-03-16T13:51:34Z,5ckvwhwy,serial-reaction-time,1,P,1,1,32,3124,0,4,349.09999999403954,224,H
2023-03-16T13:51:34Z,5ckvwhwy,serial-reaction-time,1,R,1,1,33,3124,0,1,535.8000000119209,241,L
2023-03-16T13:51:35Z,5ckvwhwy,serial-reaction-time,1,P,1,1,34,3124,0,3,522.1000000238419,413,H
2023-03-16T13:51:36Z,5ckvwhwy,serial-reaction-time,1,R,1,1,35,3124,0,2,511.40000000596046,132,H
2023-03-16T13:51:36Z,5ckvwhwy,serial-reaction-time,1,P,1,1,36,3124,0,1,403,321,H
2023-03-16T13:51:37Z,5ckvwhwy,serial-reaction-time,1,R,1,1,37,3124,0,4,339.2999999821186,214,H
2023-03-16T13:51:37Z,5ckvwhwy,serial-reaction-time,1,P,1,1,38,3124,0,2,582.6999999880791,142,H
2023-03-16T13:51:38Z,5ckvwhwy,serial-reaction-time,1,R,1,1,39,3124,0,1,369.90000000596046,421,L
2023-03-16T13:51:38Z,5ckvwhwy,serial-reaction-time,1,P,1,1,40,3124,0,4,320.30000001192093,214,H
2023-03-16T13:51:39Z,5ckvwhwy,serial-reaction-time,1,R,1,1,41,3124,0,3,458.09999999403954,143,L
2023-03-16T13:51:40Z,5ckvwhwy,serial-reaction-time,1,P,1,1,42,3124,0,3,346.40000000596046,433,H
2023-03-16T13:51:40Z,5ckvwhwy,serial-reaction-time,1,R,1,1,43,3124,0,3,342.7999999821186,333,R
2023-03-16T13:51:41Z,5ckvwhwy,serial-reaction-time,1,P,1,1,44,3124,0,1,391.59999999403954,331,H
2023-03-16T13:51:41Z,5ckvwhwy,serial-reaction-time,1,R,1,1,45,3124,0,2,447.90000000596046,312,L
2023-03-16T13:51:42Z,5ckvwhwy,serial-reaction-time,1,P,1,1,46,3124,0,2,386.699999988079,122,H
2023-03-16T13:51:42Z,5ckvwhwy,serial-reaction-time,1,R,1,1,47,3124,0,1,337.30000001192093,221,L
2023-03-16T13:51:43Z,5ckvwhwy,serial-reaction-time,1,P,1,1,48,3124,0,4,463.5,214,H
2023-03-16T13:51:43Z,5ckvwhwy,serial-reaction-time,1,R,1,1,49,3124,0,2,524.9000000059605,142,H
2023-03-16T13:51:44Z,5ckvwhwy,serial-reaction-time,NA,P,1,1,50,3124,0,3,374.09999999403954,423,H
2023-03-16T13:51:44Z,5ckvwhwy,serial-reaction-time,1,P,1,0,50,3124,0,3,679.1999999880791,423,H
2023-03-16T13:51:45Z,5ckvwhwy,serial-reaction-time,1,R,1,1,51,3124,0,4,344.30000001192093,234,H
2023-03-16T13:51:45Z,5ckvwhwy,serial-reaction-time,1,P,1,1,52,3124,0,1,503.09999999403954,341,H
2023-03-16T13:51:46Z,5ckvwhwy,serial-reaction-time,1,R,1,1,53,3124,0,1,336.30000001192093,411,L
2023-03-16T13:51:46Z,5ckvwhwy,serial-reaction-time,1,P,1,1,54,3124,0,2,369.800000011921,112,H
2023-03-16T13:51:47Z,5ckvwhwy,serial-reaction-time,1,R,1,1,55,3124,0,4,330.30000001192093,124,L
2023-03-16T13:51:47Z,5ckvwhwy,serial-reaction-time,1,P,1,1,56,3124,0,4,320.90000000596046,244,H
2023-03-16T13:51:48Z,5ckvwhwy,serial-reaction-time,1,R,1,1,57,3124,0,4,358.69999998807907,444,R
2023-03-16T13:51:48Z,5ckvwhwy,serial-reaction-time,1,P,1,1,58,3124,0,3,462.5,443,H
2023-03-16T13:51:49Z,5ckvwhwy,serial-reaction-time,1,R,1,1,59,3124,0,3,253.5,433,H
2023-03-16T13:51:49Z,5ckvwhwy,serial-reaction-time,1,P,1,1,60,3124,0,1,362.199999988079,331,H
2023-03-16T13:51:50Z,5ckvwhwy,serial-reaction-time,1,R,1,1,61,3124,0,1,252.80000001192093,311,H
2023-03-16T13:51:50Z,5ckvwhwy,serial-reaction-time,1,P,1,1,62,3124,0,2,418.800000011921,112,H
2023-03-16T13:51:51Z,5ckvwhwy,serial-reaction-time,1,R,1,1,63,3124,0,4,374.10000002384186,124,L
2023-03-16T13:51:51Z,5ckvwhwy,serial-reaction-time,1,P,1,1,64,3124,0,4,320,244,H
2023-03-16T13:51:52Z,5ckvwhwy,serial-reaction-time,1,R,1,1,65,3124,0,3,414.59999999403954,443,H
2023-03-16T13:51:52Z,5ckvwhwy,serial-reaction-time,1,P,1,1,66,3124,0,3,299.69999998807907,433,H
2023-03-16T13:51:53Z,5ckvwhwy,serial-reaction-time,1,R,1,1,67,3124,0,2,527.5999999940395,332,L
2023-03-16T13:51:53Z,5ckvwhwy,serial-reaction-time,1,P,1,1,68,3124,0,1,432.90000000596046,321,H
2023-03-16T13:51:54Z,5ckvwhwy,serial-reaction-time,1,R,1,1,69,3124,0,1,391.7000000178814,211,L
2023-03-16T13:51:54Z,5ckvwhwy,serial-reaction-time,1,P,1,1,70,3124,0,2,331.90000000596046,112,H
2023-03-16T13:51:55Z,5ckvwhwy,serial-reaction-time,1,R,1,1,71,3124,0,2,312.80000001192093,122,H
2023-03-16T13:51:55Z,5ckvwhwy,serial-reaction-time,1,P,1,1,72,3124,0,4,366.40000000596046,224,H
2023-03-16T13:51:56Z,5ckvwhwy,serial-reaction-time,1,R,1,1,73,3124,0,2,510.90000000596046,242,T
2023-03-16T13:51:57Z,5ckvwhwy,serial-reaction-time,1,P,1,1,74,3124,0,3,377,423,H
2023-03-16T13:51:57Z,5ckvwhwy,serial-reaction-time,1,R,1,1,75,3124,0,4,328.2999999821186,234,H
2023-03-16T13:51:58Z,5ckvwhwy,serial-reaction-time,NA,P,1,1,76,3124,0,1,411.5,341,H
2023-03-16T13:51:58Z,5ckvwhwy,serial-reaction-time,1,P,1,0,76,3124,0,1,673,341,H
2023-03-16T13:51:58Z,5ckvwhwy,serial-reaction-time,1,R,1,1,77,3124,0,4,402.90000000596046,414,T
2023-03-16T13:51:59Z,5ckvwhwy,serial-reaction-time,1,P,1,1,78,3124,0,2,544.4000000059605,142,H
2023-03-16T13:52:00Z,5ckvwhwy,serial-reaction-time,1,R,1,1,79,3124,0,1,427.89999997615814,421,L
2023-03-16T13:52:00Z,5ckvwhwy,serial-reaction-time,1,P,1,1,80,3124,0,4,322.2000000178814,214,H
2023-03-16T13:52:05Z,5ckvwhwy,html-keyboard-response,NA,NA,NA,NA,NA,NA,NA,NA,NA,NA,NA
2023-03-16T13:52:06Z,5ckvwhwy,html-keyboard-response,NA,NA,NA,NA,NA,NA,NA,NA,NA,NA,NA
2023-03-16T13:52:08Z,5ckvwhwy,serial-reaction-time,1,R,2,1,1,3124,0,2,768.3000000119209,2,X
2023-03-16T13:52:08Z,5ckvwhwy,serial-reaction-time,1,P,2,1,2,3124,0,3,386.7000000178814,23,X
2023-03-16T13:52:09Z,5ckvwhwy,serial-reaction-time,1,R,2,1,3,3124,0,2,426.699999988079,232,T
2023-03-16T13:52:10Z,5ckvwhwy,serial-reaction-time,1,P,2,1,4,3124,0,1,383.800000011921,321,H
2023-03-16T13:52:10Z,5ckvwhwy,serial-reaction-time,1,R,2,1,5,3124,0,4,390.699999988079,214,H
2023-03-16T13:52:11Z,5ckvwhwy,serial-reaction-time,1,P,2,1,6,3124,0,2,484,142,H
2023-03-16T13:52:11Z,5ckvwhwy,serial-reaction-time,1,R,2,1,7,3124,0,1,407,421,L
2023-03-16T13:52:12Z,5ckvwhwy,serial-reaction-time,NA,P,2,1,8,3124,0,4,362.300000011921,214,H
2023-03-16T13:52:12Z,5ckvwhwy,serial-reaction-time,1,P,2,0,8,3124,0,4,593.5000000298023,214,H
2023-03-16T13:52:13Z,5ckvwhwy,serial-reaction-time,1,R,2,1,9,3124,0,3,421.300000011921,143,L
2023-03-16T13:52:13Z,5ckvwhwy,serial-reaction-time,1,P,2,1,10,3124,0,3,330.30000001192093,433,H
2023-03-16T13:52:14Z,5ckvwhwy,serial-reaction-time,1,R,2,1,11,3124,0,3,345.89999997615814,333,R
2023-03-16T13:52:14Z,5ckvwhwy,serial-reaction-time,1,P,2,1,12,3124,0,1,446.699999988079,331,H
2023-03-16T13:52:15Z,5ckvwhwy,serial-reaction-time,1,R,2,1,13,3124,0,2,439.59999999403954,312,L
2023-03-16T13:52:15Z,5ckvwhwy,serial-reaction-time,1,P,2,1,14,3124,0,2,449.800000011921,122,H
2023-03-16T13:52:16Z,5ckvwhwy,serial-reaction-time,1,R,2,1,15,3124,0,2,435.7000000178814,222,R
2023-03-16T13:52:16Z,5ckvwhwy,serial-reaction-time,1,P,2,1,16,3124,0,4,347.7000000178814,224,H
2023-03-16T13:52:17Z,5ckvwhwy,serial-reaction-time,1,R,2,1,17,3124,0,3,322.2000000178814,243,L
2023-03-16T13:52:17Z,5ckvwhwy,serial-reaction-time,1,P,2,1,18,3124,0,3,304.09999999403954,433,H
2023-03-16T13:52:18Z,5ckvwhwy,serial-reaction-time,NA,R,2,1,19,3124,0,2,386.90000000596046,332,L
2023-03-16T13:52:18Z,5ckvwhwy,serial-reaction-time,1,R,2,0,19,3124,0,2,469.40000000596046,332,L
2023-03-16T13:52:18Z,5ckvwhwy,serial-reaction-time,1,P,2,1,20,3124,0,1,442.09999999403954,321,H
2023-03-16T13:52:19Z,5ckvwhwy,serial-reaction-time,1,R,2,1,21,3124,0,3,480.59999999403954,213,L
2023-03-16T13:52:20Z,5ckvwhwy,serial-reaction-time,1,P,2,1,22,3124,0,2,423.800000011921,132,H
2023-03-16T13:52:20Z,5ckvwhwy,serial-reaction-time,1,R,2,1,23,3124,0,2,364.2000000178814,322,L
2023-03-16T13:52:21Z,5ckvwhwy,serial-reaction-time,1,P,2,1,24,3124,0,4,353.2000000178814,224,H
2023-03-16T13:52:21Z,5ckvwhwy,serial-reaction-time,1,R,2,1,25,3124,0,3,356.7999999821186,243,L
2023-03-16T13:52:22Z,5ckvwhwy,serial-reaction-time,1,P,2,1,26,3124,0,3,315.2000000178814,433,H
2023-03-16T13:52:22Z,5ckvwhwy,serial-reaction-time,1,R,2,1,27,3124,0,2,411,332,L
2023-03-16T13:52:23Z,5ckvwhwy,serial-reaction-time,1,P,2,1,28,3124,0,1,391.90000000596046,321,H
2023-03-16T13:52:23Z,5ckvwhwy,serial-reaction-time,1,R,2,1,29,3124,0,4,338.09999999403954,214,H
2023-03-16T13:52:24Z,5ckvwhwy,serial-reaction-time,1,P,2,1,30,3124,0,2,380.10000002384186,142,H
2023-03-16T13:52:24Z,5ckvwhwy,serial-reaction-time,NA,R,2,1,31,3124,0,3,319,423,H
2023-03-16T13:52:24Z,5ckvwhwy,serial-reaction-time,1,R,2,0,31,3124,0,3,615,423,H
2023-03-16T13:52:25Z,5ckvwhwy,serial-reaction-time,1,P,2,1,32,3124,0,4,479.40000000596046,234,H
2023-03-16T13:52:26Z,5ckvwhwy,serial-reaction-time,NA,R,2,1,33,3124,0,1,439.5,341,H
2023-03-16T13:52:26Z,5ckvwhwy,serial-reaction-time,1,R,2,0,33,3124,0,1,682.7999999821186,341,H
2023-03-16T13:52:27Z,5ckvwhwy,serial-reaction-time,1,P,2,1,34,3124,0,3,526.0999999940395,413,H
2023-03-16T13:52:27Z,5ckvwhwy,serial-reaction-time,1,R,2,1,35,3124,0,1,388.09999999403954,131,T
2023-03-16T13:52:28Z,5ckvwhwy,serial-reaction-time,1,P,2,1,36,3124,0,1,325.69999998807907,311,H
2023-03-16T13:52:28Z,5ckvwhwy,serial-reaction-time,1,R,2,1,37,3124,0,4,357.40000000596046,114,L
2023-03-16T13:52:29Z,5ckvwhwy,serial-reaction-time,1,P,2,1,38,3124,0,2,440.800000011921,142,H
2023-03-16T13:52:29Z,5ckvwhwy,serial-reaction-time,NA,R,2,1,39,3124,0,4,364.5,424,T
2023-03-16T13:52:29Z,5ckvwhwy,serial-reaction-time,1,R,2,0,39,3124,0,4,629.2000000178814,424,T
2023-03-16T13:52:30Z,5ckvwhwy,serial-reaction-time,1,P,2,1,40,3124,0,4,325.7999999821186,244,H
2023-03-16T13:52:31Z,5ckvwhwy,serial-reaction-time,1,R,2,1,41,3124,0,2,479.199999988079,442,L
2023-03-16T13:52:31Z,5ckvwhwy,serial-reaction-time,1,P,2,1,42,3124,0,3,449.40000000596046,423,H
2023-03-16T13:52:32Z,5ckvwhwy,serial-reaction-time,1,R,2,1,43,3124,0,4,519.7000000178814,234,H
2023-03-16T13:52:33Z,5ckvwhwy,serial-reaction-time,1,P,2,1,44,3124,0,1,590.8999999761581,341,H
2023-03-16T13:52:33Z,5ckvwhwy,serial-reaction-time,1,R,2,1,45,3124,0,4,463.7999999821186,414,T
2023-03-16T13:52:34Z,5ckvwhwy,serial-reaction-time,1,P,2,1,46,3124,0,2,395.7000000178814,142,H
2023-03-16T13:52:34Z,5ckvwhwy,serial-reaction-time,1,R,2,1,47,3124,0,4,315.19999998807907,424,T
2023-03-16T13:52:35Z,5ckvwhwy,serial-reaction-time,1,P,2,1,48,3124,0,4,356.2000000178814,244,H
2023-03-16T13:52:35Z,5ckvwhwy,serial-reaction-time,1,R,2,1,49,3124,0,4,331.5,444,R
2023-03-16T13:52:36Z,5ckvwhwy,serial-reaction-time,1,P,2,1,50,3124,0,3,552.9000000059605,443,H
2023-03-16T13:52:36Z,5ckvwhwy,serial-reaction-time,1,R,2,1,51,3124,0,3,309.2999999821186,433,H
2023-03-16T13:52:37Z,5ckvwhwy,serial-reaction-time,1,P,2,1,52,3124,0,1,424.2999999821186,331,H
2023-03-16T13:52:37Z,5ckvwhwy,serial-reaction-time,1,R,2,1,53,3124,0,1,252.80000001192093,311,H
2023-03-16T13:52:38Z,5ckvwhwy,serial-reaction-time,1,P,2,1,54,3124,0,2,457,112,H
2023-03-16T13:52:38Z,5ckvwhwy,serial-reaction-time,1,R,2,1,55,3124,0,3,510.300000011921,123,L
2023-03-16T13:52:39Z,5ckvwhwy,serial-reaction-time,1,P,2,1,56,3124,0,4,365.90000000596046,234,H
2023-03-16T13:52:40Z,5ckvwhwy,serial-reaction-time,1,R,2,1,57,3124,0,3,458.5,343,T
2023-03-16T13:52:40Z,5ckvwhwy,serial-reaction-time,1,P,2,1,58,3124,0,3,320,433,H
2023-03-16T13:52:41Z,5ckvwhwy,serial-reaction-time,1,R,2,1,59,3124,0,4,352.69999998807907,334,L
2023-03-16T13:52:41Z,5ckvwhwy,serial-reaction-time,1,P,2,1,60,3124,0,1,465.60000002384186,341,H
2023-03-16T13:52:42Z,5ckvwhwy,serial-reaction-time,1,R,2,1,61,3124,0,1,295.59999999403954,411,L
2023-03-16T13:52:42Z,5ckvwhwy,serial-reaction-time,1,P,2,1,62,3124,0,2,345.7999999821186,112,H
2023-03-16T13:52:43Z,5ckvwhwy,serial-reaction-time,1,R,2,1,63,3124,0,2,307.30000001192093,122,H
2023-03-16T13:52:43Z,5ckvwhwy,serial-reaction-time,1,P,2,1,64,3124,0,4,363.40000000596046,224,H
2023-03-16T13:52:44Z,5ckvwhwy,serial-reaction-time,1,R,2,1,65,3124,0,2,551.7000000178814,242,T
2023-03-16T13:52:44Z,5ckvwhwy,serial-reaction-time,1,P,2,1,66,3124,0,3,351.09999999403954,423,H
2023-03-16T13:52:45Z,5ckvwhwy,serial-reaction-time,1,R,2,1,67,3124,0,4,349.09999999403954,234,H
2023-03-16T13:52:45Z,5ckvwhwy,serial-reaction-time,1,P,2,1,68,3124,0,1,521.4000000059605,341,H
2023-03-16T13:52:46Z,5ckvwhwy,serial-reaction-time,NA,R,2,1,69,3124,0,4,395.90000000596046,414,T
2023-03-16T13:52:46Z,5ckvwhwy,serial-reaction-time,1,R,2,0,69,3124,0,4,672.4000000059605,414,T
2023-03-16T13:52:47Z,5ckvwhwy,serial-reaction-time,1,P,2,1,70,3124,0,2,553.4000000059605,142,H
2023-03-16T13:52:47Z,5ckvwhwy,serial-reaction-time,1,R,2,1,71,3124,0,2,355.7999999821186,422,L
2023-03-16T13:52:48Z,5ckvwhwy,serial-reaction-time,1,P,2,1,72,3124,0,4,362.300000011921,224,H
2023-03-16T13:52:48Z,5ckvwhwy,serial-reaction-time,NA,R,2,1,73,3124,0,3,349.19999998807907,243,L
2023-03-16T13:52:49Z,5ckvwhwy,serial-reaction-time,1,R,2,0,73,3124,0,3,604.4999999701977,243,L
2023-03-16T13:52:49Z,5ckvwhwy,serial-reaction-time,1,P,2,1,74,3124,0,3,312.40000000596046,433,H
2023-03-16T13:52:50Z,5ckvwhwy,serial-reaction-time,1,R,2,1,75,3124,0,4,342.09999999403954,334,L
2023-03-16T13:52:50Z,5ckvwhwy,serial-reaction-time,1,P,2,1,76,3124,0,1,485.699999988079,341,H
2023-03-16T13:52:51Z,5ckvwhwy,serial-reaction-time,1,R,2,1,77,3124,0,2,407.800000011921,412,L
2023-03-16T13:52:51Z,5ckvwhwy,serial-reaction-time,1,P,2,1,78,3124,0,2,355.40000000596046,122,H
2023-03-16T13:52:52Z,5ckvwhwy,serial-reaction-time,1,R,2,1,79,3124,0,3,554.6999999880791,223,L
2023-03-16T13:52:52Z,5ckvwhwy,serial-reaction-time,NA,P,2,1,80,3124,0,4,262.59999999403954,234,H
2023-03-16T13:52:53Z,5ckvwhwy,serial-reaction-time,1,P,2,0,80,3124,0,4,558.2000000178814,234,H
2023-03-16T13:52:58Z,5ckvwhwy,html-keyboard-response,NA,NA,NA,NA,NA,NA,NA,NA,NA,NA,NA
2023-03-16T13:52:59Z,5ckvwhwy,html-keyboard-response,NA,NA,NA,NA,NA,NA,NA,NA,NA,NA,NA
2023-03-16T13:53:01Z,5ckvwhwy,serial-reaction-time,1,R,3,1,1,3124,0,2,792.6999999880791,2,X
2023-03-16T13:53:01Z,5ckvwhwy,serial-reaction-time,1,P,3,1,2,3124,0,3,435.699999988079,23,X
2023-03-16T13:53:02Z,5ckvwhwy,serial-reaction-time,1,R,3,1,3,3124,0,2,457.5,232,T
2023-03-16T13:53:02Z,5ckvwhwy,serial-reaction-time,1,P,3,1,4,3124,0,1,380.5,321,H
2023-03-16T13:53:03Z,5ckvwhwy,serial-reaction-time,1,R,3,1,5,3124,0,3,539.5,213,L
2023-03-16T13:53:04Z,5ckvwhwy,serial-reaction-time,1,P,3,1,6,3124,0,2,420,132,H
2023-03-16T13:53:04Z,5ckvwhwy,serial-reaction-time,1,R,3,1,7,3124,0,4,363.09999999403954,324,L
2023-03-16T13:53:05Z,5ckvwhwy,serial-reaction-time,1,P,3,1,8,3124,0,4,340.09999999403954,244,H
2023-03-16T13:53:05Z,5ckvwhwy,serial-reaction-time,1,R,3,1,9,3124,0,4,348.30000001192093,444,R
2023-03-16T13:53:06Z,5ckvwhwy,serial-reaction-time,1,P,3,1,10,3124,0,3,430.5,443,H
2023-03-16T13:53:06Z,5ckvwhwy,serial-reaction-time,1,R,3,1,11,3124,0,2,381.59999999403954,432,L
2023-03-16T13:53:07Z,5ckvwhwy,serial-reaction-time,1,P,3,1,12,3124,0,1,330.89999997615814,321,H
2023-03-16T13:53:07Z,5ckvwhwy,serial-reaction-time,1,R,3,1,13,3124,0,2,414.5,212,T
2023-03-16T13:53:08Z,5ckvwhwy,serial-reaction-time,1,P,3,1,14,3124,0,2,483.09999999403954,122,H
2023-03-16T13:53:08Z,5ckvwhwy,serial-reaction-time,1,R,3,1,15,3124,0,3,409.300000011921,223,L
2023-03-16T13:53:09Z,5ckvwhwy,serial-reaction-time,1,P,3,1,16,3124,0,4,313.5,234,H
2023-03-16T13:53:09Z,5ckvwhwy,serial-reaction-time,1,R,3,1,17,3124,0,3,390.199999988079,343,T
2023-03-16T13:53:10Z,5ckvwhwy,serial-reaction-time,1,P,3,1,18,3124,0,3,319.19999998807907,433,H
2023-03-16T13:53:10Z,5ckvwhwy,serial-reaction-time,1,R,3,1,19,3124,0,1,362.89999997615814,331,H
2023-03-16T13:53:11Z,5ckvwhwy,serial-reaction-time,1,P,3,1,20,3124,0,1,298.09999999403954,311,H
2023-03-16T13:53:11Z,5ckvwhwy,serial-reaction-time,1,R,3,1,21,3124,0,2,305.5,112,H
2023-03-16T13:53:12Z,5ckvwhwy,serial-reaction-time,1,P,3,1,22,3124,0,2,236.2000000178814,122,H
2023-03-16T13:53:12Z,5ckvwhwy,serial-reaction-time,1,R,3,1,23,3124,0,2,339.59999999403954,222,R
2023-03-16T13:53:12Z,5ckvwhwy,serial-reaction-time,1,P,3,1,24,3124,0,4,319.69999998807907,224,H
2023-03-16T13:53:13Z,5ckvwhwy,serial-reaction-time,1,R,3,1,25,3124,0,3,298.40000000596046,243,L
2023-03-16T13:53:13Z,5ckvwhwy,serial-reaction-time,1,P,3,1,26,3124,0,3,249.89999997615817,433,H
2023-03-16T13:53:14Z,5ckvwhwy,serial-reaction-time,1,R,3,1,27,3124,0,3,348.80000001192093,333,R
2023-03-16T13:53:14Z,5ckvwhwy,serial-reaction-time,1,P,3,1,28,3124,0,1,419.10000002384186,331,H
2023-03-16T13:53:15Z,5ckvwhwy,serial-reaction-time,NA,R,3,1,29,3124,0,3,244.2000000178814,313,T
2023-03-16T13:53:15Z,5ckvwhwy,serial-reaction-time,1,R,3,0,29,3124,0,3,561.5999999940395,313,T
2023-03-16T13:53:16Z,5ckvwhwy,serial-reaction-time,1,P,3,1,30,3124,0,2,412.40000000596046,132,H
2023-03-16T13:53:16Z,5ckvwhwy,serial-reaction-time,1,R,3,1,31,3124,0,1,453.300000011921,321,H
2023-03-16T13:53:17Z,5ckvwhwy,serial-reaction-time,1,P,3,1,32,3124,0,4,337.09999999403954,214,H
2023-03-16T13:53:17Z,5ckvwhwy,serial-reaction-time,1,R,3,1,33,3124,0,4,290,144,L
2023-03-16T13:53:18Z,5ckvwhwy,serial-reaction-time,1,P,3,1,34,3124,0,3,354.19999998807907,443,H
2023-03-16T13:53:18Z,5ckvwhwy,serial-reaction-time,1,R,3,1,35,3124,0,3,291.39999997615814,433,H
2023-03-16T13:53:19Z,5ckvwhwy,serial-reaction-time,1,P,3,1,36,3124,0,1,409,331,H
2023-03-16T13:53:19Z,5ckvwhwy,serial-reaction-time,1,R,3,1,37,3124,0,4,372.699999988079,314,L
2023-03-16T13:53:20Z,5ckvwhwy,serial-reaction-time,1,P,3,1,38,3124,0,2,528.0999999940395,142,H
2023-03-16T13:53:20Z,5ckvwhwy,serial-reaction-time,1,R,3,1,39,3124,0,1,491.40000000596046,421,L
2023-03-16T13:53:21Z,5ckvwhwy,serial-reaction-time,1,P,3,1,40,3124,0,4,435.40000000596046,214,H
2023-03-16T13:53:22Z,5ckvwhwy,serial-reaction-time,1,R,3,1,41,3124,0,4,362.5,144,L
2023-03-16T13:53:22Z,5ckvwhwy,serial-reaction-time,1,P,3,1,42,3124,0,3,359,443,H
2023-03-16T13:53:22Z,5ckvwhwy,serial-reaction-time,NA,R,3,1,43,3124,0,4,170.09999999403954,434,T
2023-03-16T13:53:23Z,5ckvwhwy,serial-reaction-time,1,R,3,0,43,3124,0,4,480.199999988079,434,T
2023-03-16T13:53:23Z,5ckvwhwy,serial-reaction-time,1,P,3,1,44,3124,0,1,407,341,H
2023-03-16T13:53:24Z,5ckvwhwy,serial-reaction-time,1,R,3,1,45,3124,0,3,473,413,H
2023-03-16T13:53:24Z,5ckvwhwy,serial-reaction-time,1,P,3,1,46,3124,0,2,392.59999999403954,132,H
2023-03-16T13:53:25Z,5ckvwhwy,serial-reaction-time,1,R,3,1,47,3124,0,1,404.300000011921,321,H
2023-03-16T13:53:25Z,5ckvwhwy,serial-reaction-time,1,P,3,1,48,3124,0,4,296.5,214,H
2023-03-16T13:53:26Z,5ckvwhwy,serial-reaction-time,1,R,3,1,49,3124,0,3,342.59999999403954,143,L
2023-03-16T13:53:26Z,5ckvwhwy,serial-reaction-time,1,P,3,1,50,3124,0,3,323.69999998807907,433,H
2023-03-16T13:53:27Z,5ckvwhwy,serial-reaction-time,1,R,3,1,51,3124,0,1,454.7000000178814,331,H
2023-03-16T13:53:27Z,5ckvwhwy,serial-reaction-time,1,P,3,1,52,3124,0,1,309,311,H
2023-03-16T13:53:28Z,5ckvwhwy,serial-reaction-time,NA,R,3,1,53,3124,0,4,380.300000011921,114,L
2023-03-16T13:53:28Z,5ckvwhwy,serial-reaction-time,1,R,3,0,53,3124,0,4,635,114,L
2023-03-16T13:53:29Z,5ckvwhwy,serial-reaction-time,1,P,3,1,54,3124,0,2,492.10000002384186,142,H
2023-03-16T13:53:29Z,5ckvwhwy,serial-reaction-time,1,R,3,1,55,3124,0,4,377.09999999403954,424,T
2023-03-16T13:53:30Z,5ckvwhwy,serial-reaction-time,1,P,3,1,56,3124,0,4,315.30000001192093,244,H
2023-03-16T13:53:30Z,5ckvwhwy,serial-reaction-time,1,R,3,1,57,3124,0,3,470.40000000596046,443,H
2023-03-16T13:53:31Z,5ckvwhwy,serial-reaction-time,1,P,3,1,58,3124,0,3,291.89999997615814,433,H
2023-03-16T13:53:31Z,5ckvwhwy,serial-reaction-time,1,R,3,1,59,3124,0,1,406.5,331,H
2023-03-16T13:53:32Z,5ckvwhwy,serial-reaction-time,1,P,3,1,60,3124,0,1,351.5,311,H
2023-03-16T13:53:32Z,5ckvwhwy,serial-reaction-time,1,R,3,1,61,3124,0,1,342.19999998807907,111,R
2023-03-16T13:53:33Z,5ckvwhwy,serial-reaction-time,1,P,3,1,62,3124,0,2,528.6999999880791,112,H
2023-03-16T13:53:33Z,5ckvwhwy,serial-reaction-time,1,R,3,1,63,3124,0,2,294.5,122,H
2023-03-16T13:53:34Z,5ckvwhwy,serial-reaction-time,1,P,3,1,64,3124,0,4,368,224,H
2023-03-16T13:53:34Z,5ckvwhwy,serial-reaction-time,1,R,3,1,65,3124,0,3,370.40000000596046,243,L
2023-03-16T13:53:35Z,5ckvwhwy,serial-reaction-time,1,P,3,1,66,3124,0,3,266.40000000596046,433,H
2023-03-16T13:53:35Z,5ckvwhwy,serial-reaction-time,1,R,3,1,67,3124,0,2,388.90000000596046,332,L
2023-03-16T13:53:36Z,5ckvwhwy,serial-reaction-time,1,P,3,1,68,3124,0,1,403.300000011921,321,H
2023-03-16T13:53:36Z,5ckvwhwy,serial-reaction-time,1,R,3,1,69,3124,0,1,322.60000002384186,211,L
2023-03-16T13:53:37Z,5ckvwhwy,serial-reaction-time,1,P,3,1,70,3124,0,2,391.2999999821186,112,H
2023-03-16T13:53:38Z,5ckvwhwy,serial-reaction-time,1,R,3,1,71,3124,0,3,582.5,123,L
2023-03-16T13:53:38Z,5ckvwhwy,serial-reaction-time,1,P,3,1,72,3124,0,4,345.80000001192093,234,H
2023-03-16T13:53:39Z,5ckvwhwy,serial-reaction-time,1,R,3,1,73,3124,0,1,464,341,H
2023-03-16T13:53:39Z,5ckvwhwy,serial-reaction-time,1,P,3,1,74,3124,0,3,427.5,413,H
2023-03-16T13:53:40Z,5ckvwhwy,serial-reaction-time,1,R,3,1,75,3124,0,3,326.19999998807907,133,L
2023-03-16T13:53:40Z,5ckvwhwy,serial-reaction-time,1,P,3,1,76,3124,0,1,384.09999999403954,331,H
2023-03-16T13:53:41Z,5ckvwhwy,serial-reaction-time,1,R,3,1,77,3124,0,4,320.90000000596046,314,L
2023-03-16T13:53:41Z,5ckvwhwy,serial-reaction-time,1,P,3,1,78,3124,0,2,409.7000000178814,142,H
2023-03-16T13:53:42Z,5ckvwhwy,serial-reaction-time,1,R,3,1,79,3124,0,2,353.30000001192093,422,L
2023-03-16T13:53:42Z,5ckvwhwy,serial-reaction-time,NA,P,3,1,80,3124,0,4,349.7999999821186,224,H
2023-03-16T13:53:43Z,5ckvwhwy,serial-reaction-time,1,P,3,0,80,3124,0,4,579.2999999821186,224,H
2023-03-16T13:53:48Z,5ckvwhwy,html-keyboard-response,NA,NA,NA,NA,NA,NA,NA,NA,NA,NA,NA
2023-03-16T13:53:48Z,5ckvwhwy,html-keyboard-response,NA,NA,NA,NA,NA,NA,NA,NA,NA,NA,NA
2023-03-16T13:53:50Z,5ckvwhwy,serial-reaction-time,1,R,4,1,1,3124,0,1,426.7999999821186,1,X
2023-03-16T13:53:50Z,5ckvwhwy,serial-reaction-time,1,P,4,1,2,3124,0,3,395.39999997615814,13,X
2023-03-16T13:53:51Z,5ckvwhwy,serial-reaction-time,1,R,4,1,3,3124,0,1,433.89999997615814,131,T
2023-03-16T13:53:51Z,5ckvwhwy,serial-reaction-time,1,P,4,1,4,3124,0,1,340.2000000178814,311,H
2023-03-16T13:53:52Z,5ckvwhwy,serial-reaction-time,1,R,4,1,5,3124,0,3,476.2999999821186,113,L
2023-03-16T13:53:52Z,5ckvwhwy,serial-reaction-time,1,P,4,1,6,3124,0,2,432.39999997615814,132,H
2023-03-16T13:53:53Z,5ckvwhwy,serial-reaction-time,1,R,4,1,7,3124,0,1,447.300000011921,321,H
2023-03-16T13:53:54Z,5ckvwhwy,serial-reaction-time,1,P,4,1,8,3124,0,4,369.09999999403954,214,H
2023-03-16T13:53:54Z,5ckvwhwy,serial-reaction-time,1,R,4,1,9,3124,0,2,490.60000002384186,142,H
2023-03-16T13:53:55Z,5ckvwhwy,serial-reaction-time,1,P,4,1,10,3124,0,3,309.59999999403954,423,H
2023-03-16T13:53:55Z,5ckvwhwy,serial-reaction-time,1,R,4,1,11,3124,0,4,353.90000000596046,234,H
2023-03-16T13:53:56Z,5ckvwhwy,serial-reaction-time,1,P,4,1,12,3124,0,1,494.7999999821186,341,H
2023-03-16T13:53:56Z,5ckvwhwy,serial-reaction-time,1,R,4,1,13,3124,0,2,407.40000000596046,412,L
2023-03-16T13:53:57Z,5ckvwhwy,serial-reaction-time,1,P,4,1,14,3124,0,2,333,122,H
2023-03-16T13:53:57Z,5ckvwhwy,serial-reaction-time,1,R,4,1,15,3124,0,1,449.09999999403954,221,L
2023-03-16T13:53:58Z,5ckvwhwy,serial-reaction-time,1,P,4,1,16,3124,0,4,321.59999999403954,214,H
2023-03-16T13:53:58Z,5ckvwhwy,serial-reaction-time,NA,R,4,1,17,3124,0,1,469,141,T
2023-03-16T13:53:59Z,5ckvwhwy,serial-reaction-time,1,R,4,0,17,3124,0,1,723.5,141,T
2023-03-16T13:53:59Z,5ckvwhwy,serial-reaction-time,1,P,4,1,18,3124,0,3,445.5,413,H
2023-03-16T13:54:00Z,5ckvwhwy,serial-reaction-time,1,R,4,1,19,3124,0,3,315.19999998807907,133,L
2023-03-16T13:54:00Z,5ckvwhwy,serial-reaction-time,1,P,4,1,20,3124,0,1,352.2999999821186,331,H
2023-03-16T13:54:01Z,5ckvwhwy,serial-reaction-time,NA,R,4,1,21,3124,0,2,434.300000011921,312,L
2023-03-16T13:54:01Z,5ckvwhwy,serial-reaction-time,1,R,4,0,21,3124,0,2,695.9000000059605,312,L
2023-03-16T13:54:02Z,5ckvwhwy,serial-reaction-time,1,P,4,1,22,3124,0,2,310.7000000178814,122,H
2023-03-16T13:54:02Z,5ckvwhwy,serial-reaction-time,1,R,4,1,23,3124,0,1,379.7000000178814,221,L
2023-03-16T13:54:03Z,5ckvwhwy,serial-reaction-time,1,P,4,1,24,3124,0,4,568.5999999940395,214,H
2023-03-16T13:54:03Z,5ckvwhwy,serial-reaction-time,1,R,4,1,25,3124,0,3,364.199999988079,143,L
2023-03-16T13:54:04Z,5ckvwhwy,serial-reaction-time,NA,P,4,1,26,3124,0,3,307.5,433,H
2023-03-16T13:54:04Z,5ckvwhwy,serial-reaction-time,1,P,4,0,26,3124,0,3,740.3000000119209,433,H
2023-03-16T13:54:05Z,5ckvwhwy,serial-reaction-time,1,R,4,1,27,3124,0,3,318,333,R
2023-03-16T13:54:05Z,5ckvwhwy,serial-reaction-time,1,P,4,1,28,3124,0,1,393.7999999821186,331,H
2023-03-16T13:54:06Z,5ckvwhwy,serial-reaction-time,1,R,4,1,29,3124,0,2,481.59999999403954,312,L
2023-03-16T13:54:06Z,5ckvwhwy,serial-reaction-time,1,P,4,1,30,3124,0,2,310.90000000596046,122,H
2023-03-16T13:54:07Z,5ckvwhwy,serial-reaction-time,1,R,4,1,31,3124,0,3,497.800000011921,223,L
2023-03-16T13:54:07Z,5ckvwhwy,serial-reaction-time,NA,P,4,1,32,3124,0,4,248.19999998807907,234,H
2023-03-16T13:54:08Z,5ckvwhwy,serial-reaction-time,1,P,4,0,32,3124,0,4,530.5,234,H
2023-03-16T13:54:08Z,5ckvwhwy,serial-reaction-time,1,R,4,1,33,3124,0,4,293.2000000178814,344,L
2023-03-16T13:54:08Z,5ckvwhwy,serial-reaction-time,1,P,4,1,34,3124,0,3,342.7000000178814,443,H
2023-03-16T13:54:09Z,5ckvwhwy,serial-reaction-time,1,R,4,1,35,3124,0,4,393.7000000178814,434,T
2023-03-16T13:54:10Z,5ckvwhwy,serial-reaction-time,1,P,4,1,36,3124,0,1,491.40000000596046,341,H
2023-03-16T13:54:10Z,5ckvwhwy,serial-reaction-time,NA,R,4,1,37,3124,0,4,396.800000011921,414,T
2023-03-16T13:54:10Z,5ckvwhwy,serial-reaction-time,1,R,4,0,37,3124,0,4,671.7000000178814,414,T
2023-03-16T13:54:11Z,5ckvwhwy,serial-reaction-time,1,P,4,1,38,3124,0,2,551,142,H
2023-03-16T13:54:12Z,5ckvwhwy,serial-reaction-time,1,R,4,1,39,3124,0,4,437.7999999821186,424,T
2023-03-16T13:54:12Z,5ckvwhwy,serial-reaction-time,1,P,4,1,40,3124,0,4,320.09999999403954,244,H
2023-03-16T13:54:13Z,5ckvwhwy,serial-reaction-time,1,R,4,1,41,3124,0,3,495,443,H
2023-03-16T13:54:13Z,5ckvwhwy,serial-reaction-time,1,P,4,1,42,3124,0,3,305.5,433,H
2023-03-16T13:54:14Z,5ckvwhwy,serial-reaction-time,1,R,4,1,43,3124,0,2,621.2000000178814,332,L
2023-03-16T13:54:15Z,5ckvwhwy,serial-reaction-time,1,P,4,1,44,3124,0,1,433.2999999821186,321,H
2023-03-16T13:54:15Z,5ckvwhwy,serial-reaction-time,1,R,4,1,45,3124,0,3,494,213,L
2023-03-16T13:54:16Z,5ckvwhwy,serial-reaction-time,1,P,4,1,46,3124,0,2,524.9000000059605,132,H
2023-03-16T13:54:16Z,5ckvwhwy,serial-reaction-time,1,R,4,1,47,3124,0,2,343.69999998807907,322,L
2023-03-16T13:54:17Z,5ckvwhwy,serial-reaction-time,1,P,4,1,48,3124,0,4,350.59999999403954,224,H
2023-03-16T13:54:18Z,5ckvwhwy,serial-reaction-time,1,R,4,1,49,3124,0,3,627.7000000178814,243,L
2023-03-16T13:54:18Z,5ckvwhwy,serial-reaction-time,1,P,4,1,50,3124,0,3,319.7000000178814,433,H
2023-03-16T13:54:19Z,5ckvwhwy,serial-reaction-time,1,R,4,1,51,3124,0,1,433,331,H
2023-03-16T13:54:19Z,5ckvwhwy,serial-reaction-time,1,P,4,1,52,3124,0,1,323.2000000178814,311,H
2023-03-16T13:54:20Z,5ckvwhwy,serial-reaction-time,1,R,4,1,53,3124,0,3,491.5,113,L
2023-03-16T13:54:20Z,5ckvwhwy,serial-reaction-time,1,P,4,1,54,3124,0,2,429.40000000596046,132,H
2023-03-16T13:54:21Z,5ckvwhwy,serial-reaction-time,1,R,4,1,55,3124,0,3,503.5,323,T
2023-03-16T13:54:22Z,5ckvwhwy,serial-reaction-time,1,P,4,1,56,3124,0,4,344.09999999403954,234,H
2023-03-16T13:54:22Z,5ckvwhwy,serial-reaction-time,NA,R,4,1,57,3124,0,2,458.7000000178814,342,L
2023-03-16T13:54:22Z,5ckvwhwy,serial-reaction-time,1,R,4,0,57,3124,0,2,515.7000000178814,342,L
2023-03-16T13:54:23Z,5ckvwhwy,serial-reaction-time,1,P,4,1,58,3124,0,3,512.2000000178814,423,H
2023-03-16T13:54:24Z,5ckvwhwy,serial-reaction-time,1,R,4,1,59,3124,0,1,541.9000000059605,231,L
2023-03-16T13:54:24Z,5ckvwhwy,serial-reaction-time,1,P,4,1,60,3124,0,1,296,311,H
2023-03-16T13:54:25Z,5ckvwhwy,serial-reaction-time,1,R,4,1,61,3124,0,2,447.40000000596046,112,H
2023-03-16T13:54:25Z,5ckvwhwy,serial-reaction-time,1,P,4,1,62,3124,0,2,298,122,H
2023-03-16T13:54:26Z,5ckvwhwy,serial-reaction-time,1,R,4,1,63,3124,0,1,481.199999988079,221,L
2023-03-16T13:54:26Z,5ckvwhwy,serial-reaction-time,1,P,4,1,64,3124,0,4,419.59999999403954,214,H
2023-03-16T13:54:27Z,5ckvwhwy,serial-reaction-time,1,R,4,1,65,3124,0,3,397.09999999403954,143,L
2023-03-16T13:54:27Z,5ckvwhwy,serial-reaction-time,1,P,4,1,66,3124,0,3,332.09999999403954,433,H
2023-03-16T13:54:28Z,5ckvwhwy,serial-reaction-time,1,R,4,1,67,3124,0,1,498,331,H
2023-03-16T13:54:28Z,5ckvwhwy,serial-reaction-time,1,P,4,1,68,3124,0,1,329.19999998807907,311,H
2023-03-16T13:54:29Z,5ckvwhwy,serial-reaction-time,1,R,4,1,69,3124,0,3,445.09999999403954,113,L
2023-03-16T13:54:29Z,5ckvwhwy,serial-reaction-time,1,P,4,1,70,3124,0,2,502.300000011921,132,H
2023-03-16T13:54:30Z,5ckvwhwy,serial-reaction-time,1,R,4,1,71,3124,0,2,311.5,322,L
2023-03-16T13:54:30Z,5ckvwhwy,serial-reaction-time,1,P,4,1,72,3124,0,4,401.800000011921,224,H
2023-03-16T13:54:31Z,5ckvwhwy,serial-reaction-time,1,R,4,1,73,3124,0,4,306.69999998807907,244,H
2023-03-16T13:54:31Z,5ckvwhwy,serial-reaction-time,1,P,4,1,74,3124,0,3,397.90000000596046,443,H
2023-03-16T13:54:32Z,5ckvwhwy,serial-reaction-time,1,R,4,1,75,3124,0,3,240.30000001192093,433,H
2023-03-16T13:54:32Z,5ckvwhwy,serial-reaction-time,1,P,4,1,76,3124,0,1,426.60000002384186,331,H
2023-03-16T13:54:33Z,5ckvwhwy,serial-reaction-time,1,R,4,1,77,3124,0,4,394.7999999821186,314,L
2023-03-16T13:54:34Z,5ckvwhwy,serial-reaction-time,NA,P,4,1,78,3124,0,2,458.800000011921,142,H
2023-03-16T13:54:34Z,5ckvwhwy,serial-reaction-time,1,P,4,0,78,3124,0,2,804.8000000119209,142,H
2023-03-16T13:54:35Z,5ckvwhwy,serial-reaction-time,1,R,4,1,79,3124,0,1,477.2999999821186,421,L
2023-03-16T13:54:35Z,5ckvwhwy,serial-reaction-time,1,P,4,1,80,3124,0,4,402.10000002384186,214,H
2023-03-16T13:54:40Z,5ckvwhwy,html-keyboard-response,NA,NA,NA,NA,NA,NA,NA,NA,NA,NA,NA
2023-03-16T13:54:41Z,5ckvwhwy,html-keyboard-response,NA,NA,NA,NA,NA,NA,NA,NA,NA,NA,NA
2023-03-16T13:54:42Z,5ckvwhwy,serial-reaction-time,1,R,5,1,1,3124,0,2,659.5999999940395,2,X
2023-03-16T13:54:43Z,5ckvwhwy,serial-reaction-time,1,P,5,1,2,3124,0,3,353.59999999403954,23,X
2023-03-16T13:54:43Z,5ckvwhwy,serial-reaction-time,1,R,5,1,3,3124,0,3,349.69999998807907,233,L
2023-03-16T13:54:44Z,5ckvwhwy,serial-reaction-time,1,P,5,1,4,3124,0,1,521.0999999940395,331,H
2023-03-16T13:54:45Z,5ckvwhwy,serial-reaction-time,1,R,5,1,5,3124,0,3,463,313,T
2023-03-16T13:54:45Z,5ckvwhwy,serial-reaction-time,1,P,5,1,6,3124,0,2,427.300000011921,132,H
2023-03-16T13:54:46Z,5ckvwhwy,serial-reaction-time,1,R,5,1,7,3124,0,3,429.40000000596046,323,T
2023-03-16T13:54:46Z,5ckvwhwy,serial-reaction-time,1,P,5,1,8,3124,0,4,352.40000000596046,234,H
2023-03-16T13:54:47Z,5ckvwhwy,serial-reaction-time,1,R,5,1,9,3124,0,2,506.09999999403954,342,L
2023-03-16T13:54:48Z,5ckvwhwy,serial-reaction-time,1,P,5,1,10,3124,0,3,612.6999999880791,423,H
2023-03-16T13:54:48Z,5ckvwhwy,serial-reaction-time,1,R,5,1,11,3124,0,1,427.59999999403954,231,L
2023-03-16T13:54:49Z,5ckvwhwy,serial-reaction-time,1,P,5,1,12,3124,0,1,292.09999999403954,311,H
2023-03-16T13:54:49Z,5ckvwhwy,serial-reaction-time,1,R,5,1,13,3124,0,1,360.699999988079,111,R
2023-03-16T13:54:50Z,5ckvwhwy,serial-reaction-time,1,P,5,1,14,3124,0,2,433,112,H
2023-03-16T13:54:50Z,5ckvwhwy,serial-reaction-time,1,R,5,1,15,3124,0,2,285.2999999821186,122,H
2023-03-16T13:54:51Z,5ckvwhwy,serial-reaction-time,1,P,5,1,16,3124,0,4,470.40000000596046,224,H
2023-03-16T13:54:52Z,5ckvwhwy,serial-reaction-time,1,R,5,1,17,3124,0,1,563.3000000119209,241,L
2023-03-16T13:54:52Z,5ckvwhwy,serial-reaction-time,1,P,5,1,18,3124,0,3,456.2999999821186,413,H
2023-03-16T13:54:53Z,5ckvwhwy,serial-reaction-time,1,R,5,1,19,3124,0,2,473.2000000178814,132,H
2023-03-16T13:54:53Z,5ckvwhwy,serial-reaction-time,1,P,5,1,20,3124,0,1,454.40000000596046,321,H
2023-03-16T13:54:54Z,5ckvwhwy,serial-reaction-time,1,R,5,1,21,3124,0,1,320.90000000596046,211,L
2023-03-16T13:54:54Z,5ckvwhwy,serial-reaction-time,1,P,5,1,22,3124,0,2,415.5,112,H
2023-03-16T13:54:55Z,5ckvwhwy,serial-reaction-time,1,R,5,1,23,3124,0,2,302.40000000596046,122,H
2023-03-16T13:54:55Z,5ckvwhwy,serial-reaction-time,1,P,5,1,24,3124,0,4,315.80000001192093,224,H
2023-03-16T13:54:56Z,5ckvwhwy,serial-reaction-time,1,R,5,1,25,3124,0,2,450.300000011921,242,T
2023-03-16T13:54:57Z,5ckvwhwy,serial-reaction-time,1,P,5,1,26,3124,0,3,491.39999997615814,423,H
2023-03-16T13:54:57Z,5ckvwhwy,serial-reaction-time,1,R,5,1,27,3124,0,4,363.09999999403954,234,H
2023-03-16T13:54:58Z,5ckvwhwy,serial-reaction-time,1,P,5,1,28,3124,0,1,372.59999999403954,341,H
2023-03-16T13:54:58Z,5ckvwhwy,serial-reaction-time,1,R,5,1,29,3124,0,2,396.300000011921,412,L
2023-03-16T13:54:59Z,5ckvwhwy,serial-reaction-time,1,P,5,1,30,3124,0,2,313.10000002384186,122,H
2023-03-16T13:54:59Z,5ckvwhwy,serial-reaction-time,1,R,5,1,31,3124,0,4,415.7999999821186,224,H
2023-03-16T13:55:00Z,5ckvwhwy,serial-reaction-time,1,P,5,1,32,3124,0,4,293,244,H
2023-03-16T13:55:00Z,5ckvwhwy,serial-reaction-time,1,R,5,1,33,3124,0,1,500.59999999403954,441,L
2023-03-16T13:55:01Z,5ckvwhwy,serial-reaction-time,1,P,5,1,34,3124,0,3,421.10000002384186,413,H
2023-03-16T13:55:01Z,5ckvwhwy,serial-reaction-time,1,R,5,1,35,3124,0,4,395.90000000596046,134,L
2023-03-16T13:55:02Z,5ckvwhwy,serial-reaction-time,1,P,5,1,36,3124,0,1,498.60000002384186,341,H
2023-03-16T13:55:02Z,5ckvwhwy,serial-reaction-time,1,R,5,1,37,3124,0,3,471.699999988079,413,H
2023-03-16T13:55:03Z,5ckvwhwy,serial-reaction-time,1,P,5,1,38,3124,0,2,404.699999988079,132,H
2023-03-16T13:55:04Z,5ckvwhwy,serial-reaction-time,1,R,5,1,39,3124,0,4,338.60000002384186,324,L
2023-03-16T13:55:04Z,5ckvwhwy,serial-reaction-time,1,P,5,1,40,3124,0,4,319.09999999403954,244,H
2023-03-16T13:55:04Z,5ckvwhwy,serial-reaction-time,1,R,5,1,41,3124,0,1,314,441,L
2023-03-16T13:55:05Z,5ckvwhwy,serial-reaction-time,1,P,5,1,42,3124,0,3,523,413,H
2023-03-16T13:55:06Z,5ckvwhwy,serial-reaction-time,1,R,5,1,43,3124,0,3,339.5,133,L
2023-03-16T13:55:06Z,5ckvwhwy,serial-reaction-time,1,P,5,1,44,3124,0,1,339.09999999403954,331,H
2023-03-16T13:55:07Z,5ckvwhwy,serial-reaction-time,1,R,5,1,45,3124,0,1,319.59999999403954,311,H
2023-03-16T13:55:07Z,5ckvwhwy,serial-reaction-time,1,P,5,1,46,3124,0,2,479.199999988079,112,H
2023-03-16T13:55:08Z,5ckvwhwy,serial-reaction-time,1,R,5,1,47,3124,0,3,498.800000011921,123,L
2023-03-16T13:55:08Z,5ckvwhwy,serial-reaction-time,1,P,5,1,48,3124,0,4,359.40000000596046,234,H
2023-03-16T13:55:09Z,5ckvwhwy,serial-reaction-time,NA,R,5,1,49,3124,0,3,380.2000000178814,343,T
2023-03-16T13:55:09Z,5ckvwhwy,serial-reaction-time,1,R,5,0,49,3124,0,3,740.7000000178814,343,T
2023-03-16T13:55:10Z,5ckvwhwy,serial-reaction-time,1,P,5,1,50,3124,0,3,313,433,H
2023-03-16T13:55:10Z,5ckvwhwy,serial-reaction-time,1,R,5,1,51,3124,0,4,438.5,334,L
2023-03-16T13:55:11Z,5ckvwhwy,serial-reaction-time,1,P,5,1,52,3124,0,1,523.6999999880791,341,H
2023-03-16T13:55:11Z,5ckvwhwy,serial-reaction-time,NA,R,5,1,53,3124,0,4,460.699999988079,414,T
2023-03-16T13:55:12Z,5ckvwhwy,serial-reaction-time,1,R,5,0,53,3124,0,4,693.6999999880791,414,T
2023-03-16T13:55:12Z,5ckvwhwy,serial-reaction-time,1,P,5,1,54,3124,0,2,555.6999999880791,142,H
2023-03-16T13:55:13Z,5ckvwhwy,serial-reaction-time,NA,R,5,1,55,3124,0,4,338.7000000178814,424,T
2023-03-16T13:55:13Z,5ckvwhwy,serial-reaction-time,1,R,5,0,55,3124,0,4,582.3000000119209,424,T
2023-03-16T13:55:14Z,5ckvwhwy,serial-reaction-time,1,P,5,1,56,3124,0,4,302.59999999403954,244,H
2023-03-16T13:55:14Z,5ckvwhwy,serial-reaction-time,1,R,5,1,57,3124,0,1,392.300000011921,441,L
2023-03-16T13:55:15Z,5ckvwhwy,serial-reaction-time,1,P,5,1,58,3124,0,3,555.5,413,H
2023-03-16T13:55:15Z,5ckvwhwy,serial-reaction-time,1,R,5,1,59,3124,0,4,396.199999988079,134,L
2023-03-16T13:55:16Z,5ckvwhwy,serial-reaction-time,1,P,5,1,60,3124,0,1,629,341,H
2023-03-16T13:55:17Z,5ckvwhwy,serial-reaction-time,1,R,5,1,61,3124,0,1,310.7999999821186,411,L
2023-03-16T13:55:17Z,5ckvwhwy,serial-reaction-time,1,P,5,1,62,3124,0,2,367.300000011921,112,H
2023-03-16T13:55:18Z,5ckvwhwy,serial-reaction-time,1,R,5,1,63,3124,0,1,629.0999999940395,121,T
2023-03-16T13:55:18Z,5ckvwhwy,serial-reaction-time,1,P,5,1,64,3124,0,4,378,214,H
2023-03-16T13:55:19Z,5ckvwhwy,serial-reaction-time,1,R,5,1,65,3124,0,3,380.699999988079,143,L
2023-03-16T13:55:19Z,5ckvwhwy,serial-reaction-time,1,P,5,1,66,3124,0,3,329,433,H
2023-03-16T13:55:20Z,5ckvwhwy,serial-reaction-time,1,R,5,1,67,3124,0,2,360.90000000596046,332,L
2023-03-16T13:55:21Z,5ckvwhwy,serial-reaction-time,1,P,5,1,68,3124,0,1,465.90000000596046,321,H
2023-03-16T13:55:21Z,5ckvwhwy,serial-reaction-time,1,R,5,1,69,3124,0,2,498.800000011921,212,T
2023-03-16T13:55:22Z,5ckvwhwy,serial-reaction-time,1,P,5,1,70,3124,0,2,386.699999988079,122,H
2023-03-16T13:55:22Z,5ckvwhwy,serial-reaction-time,1,R,5,1,71,3124,0,2,381.2999999821186,222,R
2023-03-16T13:55:23Z,5ckvwhwy,serial-reaction-time,1,P,5,1,72,3124,0,4,447.09999999403954,224,H
2023-03-16T13:55:23Z,5ckvwhwy,serial-reaction-time,1,R,5,1,73,3124,0,3,477.7000000178814,243,L
2023-03-16T13:55:24Z,5ckvwhwy,serial-reaction-time,1,P,5,1,74,3124,0,3,286.59999999403954,433,H
2023-03-16T13:55:24Z,5ckvwhwy,serial-reaction-time,1,R,5,1,75,3124,0,1,469,331,H
2023-03-16T13:55:25Z,5ckvwhwy,serial-reaction-time,1,P,5,1,76,3124,0,1,314.19999998807907,311,H
2023-03-16T13:55:25Z,5ckvwhwy,serial-reaction-time,1,R,5,1,77,3124,0,2,396,112,H
2023-03-16T13:55:26Z,5ckvwhwy,serial-reaction-time,1,P,5,1,78,3124,0,2,288.5,122,H
2023-03-16T13:55:26Z,5ckvwhwy,serial-reaction-time,1,R,5,1,79,3124,0,3,360.90000000596046,223,L
2023-03-16T13:55:27Z,5ckvwhwy,serial-reaction-time,1,P,5,1,80,3124,0,4,340.80000001192093,234,H
2023-03-16T13:55:32Z,5ckvwhwy,html-keyboard-response,NA,NA,NA,NA,NA,NA,NA,NA,NA,NA,NA
2023-03-16T13:55:35Z,5ckvwhwy,html-keyboard-response,NA,NA,NA,NA,NA,NA,NA,NA,NA,NA,NA
2023-03-16T13:55:36Z,5ckvwhwy,fullscreen,NA,NA,NA,NA,NA,NA,NA,NA,NA,NA,NA
NA,NA,NA,NA,NA,NA,NA,NA,NA,NA,NA,NA,NA,NA
